Folder: SI_for_publications/ACS_Catal_2026/Figures_Na_K/main_figures/data/EC/20240401_2-128_CV_cycles_alpha_gamma/alpha

Note: ACS_Catal_2026/ReadMe.md
## Codes to generate the figures in "Influence of Electrolyte Cations on the Oxygen Evolution Reaction of Nanochanneled Manganese Oxide"

All the code files were written by Koichi Yatsuzuka.
Includes the raw data files (binary and text).
The code uses Yatsuzuka's original library (included).

File: 20240328_2-128_001_alpha_K-1_02_PEIS_C01.mpt
EC-Lab ASCII FILE
Nb header lines : 63

Potentio Electrochemical Impedance Spectroscopy

Run on channel : 1 (SN 66412)
User :
CE vs. WE compliance from -10 V to 10 V
Electrode connection : standard
Potential control : Ewe
Ewe ctrl range : min = -1.00 V, max = 1.00 V
Safety Limits :
	Do not start on E overload
Acquisition started on : 04/01/2024 18:50:54.595
Loaded Setting File :  C:\Users\NakamuraT\Documents\EC-Lab\Data\Yatsuzuka\20240328_2-129_UV-vis_K_Na_diff\20240328_2-129_001_preconditioning+CV_inK.mps
Saved on :
	File : 20240328_2-128_001_alpha_K-1_02_PEIS_C01.mpr
	Directory : C:\Users\NakamuraT\Documents\EC-Lab\Data\Yatsuzuka\20240401_2-128_CV_cycles_alpha_gamma\
	Host : 192.109.209.100
Device : SP-150e (SN .003411)
Address : 192.109.209.236
EC-Lab for windows v11.50 (software)
Internet server v11.50 (firmware)
Command interpretor v11.50 (firmware)
Electrode material :
Initial state :
Electrolyte :
Comments :
Electrode surface area : 0.001 cm2
Characteristic mass : 0.001 g
Equivalent Weight : 0.000 g/eq.
Density : 0.000 g/cm3
Volume (V) : 0.001 cm3
Cycle Definition : Charge/Discharge alternance
Mode                Single sine
E (V)               0.4500
vs.                 Ref
tE (h:m:s)          0:00:0.0000
record              0
dI                  0.000
unit dI             mA
dt (s)              0.000
fi                  500.000
unit fi             kHz
ff                  1.000
unit ff             Hz
Nd                  6
Points              per decade
spacing             Logarithmic
Va (mV)             10.0
pw                  0.10
Na                  2
corr                0
E range min (V)     -1.000
E range max (V)     1.000
I Range             Auto
Bandwidth           5
nc cycles           0
goto Ns'            0
nr cycles           0
inc. cycle          0

freq/Hz	Re(Z)/Ohm	-Im(Z)/Ohm	|Z|/Ohm	Phase(Z)/deg	time/s	<Ewe>/V	<I>/mA	Cs/uF	Cp/uF	cycle number	I Range	|Ewe|/V	|I|/A	Ns	(Q-Qo)/mA.h	Re(Y)/Ohm-1	Im(Y)/Ohm-1	|Y|/Ohm-1	Phase(Y)/deg	Re(C)/nF	Im(C)/nF	|C|/nF	Phase(C)/deg	Re(M)	Im(M)	|M|	Phase(M)/deg	Re(Permittivity)	Im(Permittivity)	|Permittivity|	Phase(Permittivity)/deg	Re(Resistivity)/Ohm.cm	Im(Resistivity)/Ohm.cm	|Resistivity|/Ohm.cm	Phase(Resistivity)/deg	Re(Conductivity)/mS/cm	Im(Conductivity)/mS/cm	|Conductivity|/mS/cm	Phase(Conductivity)/deg	Tan(Delta)	Loss Angle(Delta)/deg	dq/mA.h
500019	36.6205	0.2237	36.6211	-0.349993	200.712	0.450479	0.186246	1.42288	5.30928e-05	1	11	0.00859504	0.000234702	0	7.50763e-05	0.0273061	0.000166802	0.0273066	0.349993	0.0530925	8.69149	8.69165	-89.65	0.0000000E+000	0.0000000E+000	0.0000000E+000	89.65	0.0000000E+000	0.0000000E+000	0.0000000E+000	-89.65	0.0000000E+000	0.0000000E+000	0.0000000E+000	-0.349993	0.0000000E+000	0.0000000E+000	0.0000000E+000	0.349993	163.704	89.65	7.50763e-05
231063	23.0752	-1.99826	23.1616	4.94934	201.996	0.450316	-0.000401096	-0.344697	-0.0025657	1	10	0.0108305	0.000467608	0	8.33119e-05	0.0430139	-0.00372491	0.0431749	-4.94934	-2.5657	29.6278	29.7387	-94.9493	0.0000000E+000	0.0000000E+000	0.0000000E+000	94.9493	0.0000000E+000	0.0000000E+000	0.0000000E+000	-94.9493	0.0000000E+000	0.0000000E+000	0.0000000E+000	4.94934	0.0000000E+000	0.0000000E+000	0.0000000E+000	-4.94934	11.5476	85.0507	1.84912e-07
106786	21.1712	-0.636319	21.1808	1.72156	202.84	0.450323	-0.00734977	-2.34223	-0.00211396	1	10	0.010719	0.000506073	0	8.19635e-05	0.0471913	-0.00141838	0.0472126	-1.72156	-2.11396	70.3342	70.366	-91.7216	0.0000000E+000	0.0000000E+000	0.0000000E+000	91.7216	0.0000000E+000	0.0000000E+000	0.0000000E+000	-91.7216	0.0000000E+000	0.0000000E+000	0.0000000E+000	1.72156	0.0000000E+000	0.0000000E+000	0.0000000E+000	-1.72156	33.2714	88.2784	-3.03956e-07
49352.4	20.8848	-0.244748	20.8862	0.671416	203.684	0.450322	-0.00892647	-13.1763	-0.0018093	1	10	0.0104586	0.000500742	0	8.15733e-05	0.0478752	-0.000561047	0.0478785	-0.671416	-1.80931	154.391	154.402	-90.6714	0.0000000E+000	0.0000000E+000	0.0000000E+000	90.6714	0.0000000E+000	0.0000000E+000	0.0000000E+000	-90.6714	0.0000000E+000	0.0000000E+000	0.0000000E+000	0.671416	0.0000000E+000	0.0000000E+000	0.0000000E+000	-0.671416	85.3318	89.3286	-6.02082e-07
22806.6	20.8187	-0.104856	20.819	0.288575	204.528	0.450323	-0.0102233	-66.5528	-0.00168825	1	10	0.0102995	0.000494719	0	7.86119e-05	0.0480325	-0.000241922	0.0480331	-0.288575	-1.68824	335.194	335.198	-90.2886	0.0000000E+000	0.0000000E+000	0.0000000E+000	90.2886	0.0000000E+000	0.0000000E+000	0.0000000E+000	-90.2886	0.0000000E+000	0.0000000E+000	0.0000000E+000	0.288575	0.0000000E+000	0.0000000E+000	0.0000000E+000	-0.288575	198.545	89.7114	-1.34412e-06
10540.4	20.8298	-0.0559663	20.8299	0.153944	205.237	0.450322	-0.0113111	-269.797	-0.00194767	1	10	0.010844	0.000520599	0	7.62947e-05	0.0480078	-0.000128989	0.0480079	-0.153944	-1.9477	724.895	724.898	-90.1539	0.0000000E+000	0.0000000E+000	0.0000000E+000	90.1539	0.0000000E+000	0.0000000E+000	0.0000000E+000	-90.1539	0.0000000E+000	0.0000000E+000	0.0000000E+000	0.153944	0.0000000E+000	0.0000000E+000	0.0000000E+000	-0.153944	372.185	89.8461	-1.12505e-06
4871.56	20.8648	-0.0209768	20.8648	0.0576033	206.229	0.45035	-0.0122198	-1557.45	-0.00157421	1	10	0.0103817	0.000497569	0	7.33059e-05	0.0479275	-4.81847e-05	0.0479275	-0.0576033	-1.57417	1565.8	1565.8	-90.0576	0.0000000E+000	0.0000000E+000	0.0000000E+000	90.0576	0.0000000E+000	0.0000000E+000	0.0000000E+000	-90.0576	0.0000000E+000	0.0000000E+000	0.0000000E+000	0.0576033	0.0000000E+000	0.0000000E+000	0.0000000E+000	-0.0576033	994.662	89.9424	-1.57153e-06
2250.72	20.8815	0.00507748	20.8815	-0.0139319	207.158	0.450355	-0.013302	13926.8	0.000823426	1	10	0.0105219	0.000503886	0	6.99251e-05	0.0478893	1.16446e-05	0.0478893	0.0139319	0.82339	3386.39	3386.39	-89.9861	0.0000000E+000	0.0000000E+000	0.0000000E+000	89.9861	0.0000000E+000	0.0000000E+000	0.0000000E+000	-89.9861	0.0000000E+000	0.0000000E+000	0.0000000E+000	-0.0139319	0.0000000E+000	0.0000000E+000	0.0000000E+000	0.0139319	4112.57	89.9861	-1.34143e-06
1040.33	20.8645	0.0202546	20.8645	-0.0556208	208.088	0.450345	-0.0131024	7553.1	0.00711794	1	10	0.0105501	0.00050565	0	6.67844e-05	0.0479283	4.65271e-05	0.0479283	0.0556208	7.11762	7332.29	7332.29	-89.9444	0.0000000E+000	0.0000000E+000	0.0000000E+000	89.9444	0.0000000E+000	0.0000000E+000	0.0000000E+000	-89.9444	0.0000000E+000	0.0000000E+000	0.0000000E+000	-0.0556208	0.0000000E+000	0.0000000E+000	0.0000000E+000	0.0556208	1030.11	89.9444	-1.83182e-06
480.769	20.8791	0.0579691	20.8791	-0.159077	209.017	0.450344	-0.0140036	5710.67	0.0440205	1	10	0.0105595	0.000505743	0	6.35693e-05	0.0478945	0.000132975	0.0478947	0.159077	44.0215	15855.1	15855.2	-89.8409	0.0000000E+000	0.0000000E+000	0.0000000E+000	89.8409	0.0000000E+000	0.0000000E+000	0.0000000E+000	-89.8409	0.0000000E+000	0.0000000E+000	0.0000000E+000	-0.159077	0.0000000E+000	0.0000000E+000	0.0000000E+000	0.159077	360.176	89.8409	-1.70786e-06
222.061	20.9332	0.105695	20.9334	-0.289292	209.943	0.450345	-0.014513	6781.02	0.17287	1	10	0.0105709	0.000504978	0	5.96444e-05	0.0477698	0.000241197	0.0477704	0.289292	172.87	34237.5	34237.9	-89.7107	0.0000000E+000	0.0000000E+000	0.0000000E+000	89.7107	0.0000000E+000	0.0000000E+000	0.0000000E+000	-89.7107	0.0000000E+000	0.0000000E+000	0.0000000E+000	-0.289292	0.0000000E+000	0.0000000E+000	0.0000000E+000	0.289292	198.053	89.7107	-2.40795e-06
102.667	20.9181	0.240342	20.9195	-0.658278	210.879	0.450357	-0.0149235	6449.99	0.85136	1	10	0.0105688	0.000505213	0	5.59201e-05	0.0477991	0.000549194	0.0478023	0.658278	851.362	74098.2	74103	-89.3417	0.0000000E+000	0.0000000E+000	0.0000000E+000	89.3417	0.0000000E+000	0.0000000E+000	0.0000000E+000	-89.3417	0.0000000E+000	0.0000000E+000	0.0000000E+000	-0.658278	0.0000000E+000	0.0000000E+000	0.0000000E+000	0.658278	87.035	89.3417	-1.95313e-06
47.4443	20.9872	0.483469	20.9928	-1.31965	212.045	0.450326	0.00208306	6938.52	3.68014	1	11	0.0105754	0.000503765	0	5.51208e-05	0.0476228	0.00109706	0.0476354	1.31965	3680.15	159754	159796	-88.6803	0.0000000E+000	0.0000000E+000	0.0000000E+000	88.6803	0.0000000E+000	0.0000000E+000	0.0000000E+000	-88.6803	0.0000000E+000	0.0000000E+000	0.0000000E+000	-1.31965	0.0000000E+000	0.0000000E+000	0.0000000E+000	1.31965	43.4096	88.6803	-3.02563e-07
21.9144	20.9838	1.03427	21.0093	-2.82177	212.913	0.450325	0.00236899	7021.92	17.0177	1	11	0.0105753	0.000503361	0	5.4338e-05	0.0475403	0.00234321	0.047598	2.82177	17017.8	345264	345684	-87.1782	0.0000000E+000	0.0000000E+000	0.0000000E+000	87.1782	0.0000000E+000	0.0000000E+000	0.0000000E+000	-87.1782	0.0000000E+000	0.0000000E+000	0.0000000E+000	-2.82177	0.0000000E+000	0.0000000E+000	0.0000000E+000	2.82177	20.2885	87.1782	-1.07034e-06
10.1329	20.9558	2.23601	21.0748	-6.09049	213.84	0.450337	4.53431e-05	7024.42	79.0739	1	11	0.0105801	0.000502027	0	5.76337e-05	0.0471823	0.00503441	0.0474501	6.09049	79074	741078	745284	-83.9095	0.0000000E+000	0.0000000E+000	0.0000000E+000	83.9095	0.0000000E+000	0.0000000E+000	0.0000000E+000	-83.9095	0.0000000E+000	0.0000000E+000	0.0000000E+000	-6.09049	0.0000000E+000	0.0000000E+000	0.0000000E+000	6.09049	9.37196	83.9095	3.15899e-06
4.68375	21.0433	4.88633	21.6032	-13.0726	214.69	0.450342	0.00133493	6954.14	355.774	1	11	0.0105793	0.000489713	0	6.09503e-05	0.0450899	0.01047	0.0462895	13.0726	355774	1.53216e+06	1.57293e+06	-76.9274	0.0000000E+000	0.0000000E+000	0.0000000E+000	76.9274	0.0000000E+000	0.0000000E+000	0.0000000E+000	-76.9274	0.0000000E+000	0.0000000E+000	0.0000000E+000	-13.0726	0.0000000E+000	0.0000000E+000	0.0000000E+000	13.0726	4.30657	76.9274	6.38785e-06
2.16533	21.4593	10.3102	23.8076	-25.6622	216.405	0.450346	0.00163933	7129	1337.01	1	11	0.0105849	0.0004446	0	4.97379e-05	0.0378603	0.0181902	0.0420034	25.6622	1.33701e+06	2.78279e+06	3.08732e+06	-64.3378	0.0000000E+000	0.0000000E+000	0.0000000E+000	64.3378	0.0000000E+000	0.0000000E+000	0.0000000E+000	-64.3378	0.0000000E+000	0.0000000E+000	0.0000000E+000	-25.6622	0.0000000E+000	0.0000000E+000	0.0000000E+000	25.6622	2.08136	64.3378	-7.88224e-06
1.00006	21.9993	22.1331	31.2065	-45.1737	221.063	0.450352	0.00365944	7190.35	3616.97	1	12	0.0105879	0.000339286	0	6.84022e-05	0.0225902	0.0227275	0.0320446	45.1737	3.61697e+06	3.59511e+06	5.09973e+06	-44.8263	0.0000000E+000	0.0000000E+000	0.0000000E+000	44.8263	0.0000000E+000	0.0000000E+000	0.0000000E+000	-44.8263	0.0000000E+000	0.0000000E+000	0.0000000E+000	-45.1737	0.0000000E+000	0.0000000E+000	0.0000000E+000	45.1737	0.993956	44.8263	1.65281e-05

File: 20240328_2-128_001_alpha_K-1_03_CVA_C01.mpt
EC-Lab ASCII FILE
Nb header lines : 66

Cyclic Voltammetry Advanced

Run on channel : 1 (SN 66412)
User :
CE vs. WE compliance from -10 V to 10 V
Electrode connection : standard
Potential control : Ewe
Ewe ctrl range : min = -1.00 V, max = 1.00 V
Safety Limits :
	Do not start on E overload
Acquisition started on : 04/01/2024 18:50:54.595
Loaded Setting File :  C:\Users\NakamuraT\Documents\EC-Lab\Data\Yatsuzuka\20240328_2-129_UV-vis_K_Na_diff\20240328_2-129_001_preconditioning+CV_inK.mps
Saved on :
	File : 20240328_2-128_001_alpha_K-1_03_CVA_C01.mpr
	Directory : C:\Users\NakamuraT\Documents\EC-Lab\Data\Yatsuzuka\20240401_2-128_CV_cycles_alpha_gamma\
	Host : 192.109.209.100
Device : SP-150e (SN .003411)
Address : 192.109.209.236
EC-Lab for windows v11.50 (software)
Internet server v11.50 (firmware)
Command interpretor v11.50 (firmware)
Electrode material :
Initial state :
Electrolyte :
Comments :
Electrode surface area : 0.001 cm2
Characteristic mass : 0.001 g
Equivalent Weight : 0.000 g/eq.
Density : 0.000 g/cm3
Volume (V) : 0.001 cm3
Cycle Definition : Charge/Discharge alternance
Ei (V)              0.450
vs.                 Ref
ti (h:m:s)          0:00:10.0000
dti (s)             0.0000
dE/dt               5.000
dE/dt unit          mV/s
E1 (V)              0.700
vs.                 Ref
t1 (h:m:s)          0:00:0.0000
dt1 (s)             0.1000
Step percent        50
N                   10
E range min (V)     -1.000
E range max (V)     1.000
I Range             10 mA
I Range min         Unset
I Range max         Unset
I Range init        Unset
Bandwidth           5
E2 (V)              0.450
vs.                 Ref
t2 (h:m:s)          0:00:0.0000
dt2 (s)             0.1000
nc cycles           14
nr                  1
Reverse Scan        0
Ef (V)              0.000
vs.                 Eoc
tf (h:m:s)          0:00:0.0000
dtf (s)             0.1000

mode	ox/red	error	control changes	Ns changes	counter inc.	time/s	control/V	Ewe/V	<I>/mA	cycle number	(Q-Qo)/C	I Range	Ns	step time/s	P/W
2	0	0	1	0	0	231.183	0.449951	0.450132	-0.00306432	1	0.0000000E+000	11	0	0.000000000000000E+000	-1.37935e-06
2	1	0	0	0	0	243.74	0.512737	0.513098	0.0538581	1	0.000556983	11	0	12.5022	2.76345e-05
2	1	0	0	0	0	256.343	0.575749	0.576059	0.13828	1	0.00160965	11	0	25.1046	7.96575e-05
2	1	0	0	0	0	268.945	0.638761	0.639082	0.736883	1	0.00612623	11	0	37.707	0.000470929
2	1	0	1	0	0	281.353	0.699173	0.699518	2.22296	1	0.0241321	11	0	50.1148	0.001555
2	1	0	1	0	0	293.955	0.636161	0.636486	0.581616	1	0.0406873	11	0	62.7172	0.00037019
2	1	0	1	0	0	306.558	0.573149	0.573493	0.0248871	1	0.0434766	11	0	75.3196	1.42726e-05
2	0	0	1	0	0	319.16	0.510137	0.510473	-0.0326664	1	0.043288	11	0	10.102	-1.66753e-05
2	1	0	0	0	1	331.638	0.452276	0.452641	0.0251137	2	0.0428336	11	0	0.2	1.13675e-05
2	1	0	0	0	1	344.24	0.515288	0.515627	0.0379417	2	0.0432755	11	0	12.8024	1.95637e-05
2	1	0	0	0	1	356.842	0.5783	0.578679	0.0940791	2	0.0439532	11	0	25.4048	5.44416e-05
2	1	0	0	0	1	369.445	0.641312	0.641643	0.683398	2	0.0477846	11	0	38.0072	0.000438498
2	1	0	1	0	1	381.843	0.696672	0.697036	2.04835	2	0.06522	11	0	50.405	0.00142777
2	1	0	1	0	1	394.445	0.63366	0.633967	0.493226	2	0.0801729	11	0	63.0074	0.000312689
2	1	0	1	0	1	407.047	0.570648	0.570974	0.0126882	2	0.0824127	11	0	75.6098	7.24464e-06
2	0	0	1	0	1	419.65	0.507636	0.50802	-0.0333794	2	0.0821702	11	0	11.2022	-1.69574e-05
2	1	0	1	0	0	432.127	0.454776	0.455105	0.030289	3	0.0817458	11	0	0.7	1.37847e-05
2	1	0	1	0	0	444.73	0.517788	0.518103	0.0361502	3	0.0821753	11	0	13.3024	1.87295e-05
2	1	0	1	0	0	457.332	0.5808	0.581136	0.09355	3	0.0828355	11	0	25.9048	5.43653e-05
2	1	0	1	0	0	469.934	0.643812	0.644109	0.691294	3	0.0867037	11	0	38.5072	0.000445269
2	1	0	0	0	0	482.332	0.694172	0.694522	1.90649	3	0.104157	11	0	50.905	0.0013241
2	1	0	0	0	0	494.935	0.63116	0.631528	0.430657	3	0.117834	11	0	63.5074	0.000271972
2	1	0	0	0	0	507.537	0.568148	0.5685	0.00532635	3	0.119704	11	0	76.1098	3.02803e-06
2	0	0	0	0	0	520.139	0.505136	0.505502	-0.0338693	3	0.11943	11	0	11.9022	-1.7121e-05
2	1	0	1	0	1	532.617	0.457277	0.457631	0.0311386	4	0.11904	11	0	1.2002	1.425e-05
2	1	0	1	0	1	545.219	0.520289	0.520621	0.0351268	4	0.119463	11	0	13.8026	1.82878e-05
2	1	0	1	0	1	557.822	0.583301	0.583672	0.0951817	4	0.120125	11	0	26.405	5.55549e-05
2	1	0	1	0	1	570.424	0.646313	0.64664	0.703217	4	0.124081	11	0	39.0074	0.000454728
2	1	0	0	0	1	582.822	0.691671	0.692048	1.76548	4	0.14138	11	0	51.4052	0.00122179
2	1	0	0	0	1	595.424	0.628659	0.629001	0.375185	4	0.153864	11	0	64.0076	0.000235992
2	1	0	1	0	1	608.027	0.565647	0.565965	-0.000428998	4	0.155438	11	0	0.000000000000000E+000	-2.42798e-07
2	0	0	1	0	1	620.629	0.502636	0.502999	-0.0343008	4	0.155141	11	0	12.6024	-1.72532e-05
2	1	0	0	0	0	633.107	0.459777	0.460116	0.0307772	5	0.154786	11	0	1.7002	1.41611e-05
2	1	0	0	0	0	645.709	0.522789	0.523112	0.0346353	5	0.155206	11	0	14.3026	1.81181e-05
2	1	0	0	0	0	658.311	0.585801	0.586177	0.0986215	5	0.155879	11	0	26.905	5.78097e-05
2	1	0	0	0	0	670.914	0.648813	0.64916	0.733391	5	0.160024	11	0	39.5074	0.000476088
2	1	0	1	0	0	683.312	0.689171	0.689512	1.68043	5	0.177622	11	0	51.9052	0.00115867
2	1	0	1	0	0	695.914	0.626159	0.626478	0.333431	5	0.189196	11	0	64.5076	0.000208887
2	0	0	1	0	0	708.516	0.563147	0.563549	-0.00528803	5	0.190528	11	0	0.6002	-2.98006e-06
2	0	0	1	0	0	721.119	0.500135	0.500455	-0.0347612	5	0.190214	11	0	13.2026	-1.73964e-05
2	1	0	0	0	1	733.596	0.462278	0.462617	0.0316802	6	0.189894	11	0	2.2004	1.46558e-05
2	1	0	0	0	1	746.199	0.52529	0.525614	0.0355617	6	0.190312	11	0	14.8028	1.86917e-05
2	1	0	0	0	1	758.801	0.588302	0.588637	0.103397	6	0.191003	11	0	27.4052	6.08635e-05
2	1	0	0	0	1	771.404	0.651314	0.651606	0.768766	6	0.195364	11	0	40.0076	0.000500933
2	1	0	1	0	1	783.801	0.68667	0.686978	1.59444	6	0.213184	11	0	52.4053	0.00109535
2	1	0	1	0	1	796.404	0.623658	0.623999	0.293805	6	0.22394	11	0	65.0077	0.000183334
2	0	0	0	0	1	809.006	0.560646	0.560971	-0.00883574	6	0.225063	11	0	1.2002	-4.95659e-06
2	0	0	0	0	1	821.608	0.497634	0.497998	-0.0343181	6	0.224734	11	0	13.8026	-1.70904e-05
2	1	0	1	0	0	834.086	0.464778	0.465139	0.0312461	7	0.224448	11	0	2.7004	1.45338e-05
2	1	0	1	0	0	846.688	0.52779	0.528166	0.0354143	7	0.224865	11	0	15.3028	1.87046e-05
2	1	0	1	0	0	859.291	0.590802	0.591128	0.109247	7	0.225575	11	0	27.9052	6.45788e-05
2	1	0	1	0	0	871.893	0.653814	0.654121	0.800291	7	0.23017	11	0	40.5076	0.000523487
2	1	0	0	0	0	884.291	0.68417	0.684501	1.50193	7	0.248109	11	0	52.9054	0.00102808
2	1	0	0	0	0	896.893	0.621158	0.621445	0.25955	7	0.258065	11	0	65.5078	0.000161296
2	0	0	0	0	0	909.496	0.558146	0.558472	-0.0115719	7	0.259009	11	0	1.9004	-6.46256e-06
2	0	0	0	0	0	922.098	0.495134	0.495517	-0.0348997	7	0.258668	11	0	14.5028	-1.72934e-05
2	1	0	1	0	1	934.576	0.467279	0.467656	0.0310487	8	0.258416	11	0	3.2006	1.45201e-05
2	1	0	1	0	1	947.178	0.530291	0.530605	0.0349697	8	0.258831	11	0	15.803	1.85551e-05
2	1	0	1	0	1	959.781	0.593303	0.593643	0.115294	8	0.259567	11	0	28.4054	6.84433e-05
2	1	0	1	0	1	972.383	0.656315	0.656711	0.840893	8	0.264423	11	0	41.0078	0.000552224
2	1	0	1	0	1	984.781	0.68167	0.682024	1.41402	8	0.282484	11	0	53.4055	0.000964396
2	1	0	1	0	1	997.383	0.618657	0.618965	0.229166	8	0.291651	11	0	66.0079	0.000141846
2	0	0	1	0	1	1009.99	0.555645	0.556034	-0.0139853	8	0.292437	11	0	2.4004	-7.7763e-06
[...]
2	0	0	0	0	1	1210.96	0.550644	0.550931	-0.0186792	10	0.357742	11	0	3.7006	-1.0291e-05
2	0	0	0	0	1	1223.57	0.487633	0.487919	-0.0353978	10	0.357372	11	0	16.303	-1.72713e-05
2	1	0	1	0	0	1236.04	0.47478	0.475081	0.0315305	11	0.357225	11	0	4.7008	1.49795e-05
2	1	0	1	0	0	1248.65	0.537792	0.538143	0.0366978	11	0.357639	11	0	17.3032	1.97486e-05
2	1	0	1	0	0	1261.25	0.600804	0.601134	0.13992	11	0.358476	11	0	29.9056	8.41104e-05
2	1	0	1	0	0	1273.85	0.663816	0.66406	0.96292	11	0.364228	11	0	42.508	0.000639436
2	1	0	0	0	0	1286.25	0.674168	0.674508	1.16665	11	0.382228	11	0	54.9058	0.000786916
2	1	0	0	0	0	1298.85	0.611156	0.611461	0.153022	11	0.389358	11	0	67.5082	9.35669e-05
2	0	0	0	0	0	1311.45	0.548144	0.54845	-0.0200391	11	0.389776	11	0	4.2008	-1.09905e-05
2	0	0	0	0	0	1324.06	0.485132	0.485472	-0.0349033	11	0.3894	11	0	16.8032	-1.69446e-05
2	1	0	1	0	1	1336.53	0.477281	0.477605	0.0317149	12	0.389287	11	0	5.201	1.51472e-05
2	1	0	1	0	1	1349.14	0.540292	0.540621	0.0365216	12	0.3897	11	0	17.8034	1.97443e-05
2	1	0	1	0	1	1361.74	0.603304	0.603634	0.149546	12	0.390579	11	0	30.4058	9.02713e-05
2	1	0	1	0	1	1374.34	0.666316	0.666603	1.00698	12	0.39668	11	0	43.0082	0.000671258
2	1	0	1	0	1	1386.74	0.671667	0.672027	1.09389	12	0.414562	11	0	55.4058	0.000735122
2	1	0	1	0	1	1399.34	0.608655	0.609024	0.132132	12	0.421113	11	0	68.0082	8.04717e-05
2	0	0	1	0	1	1411.94	0.545644	0.545983	-0.0216852	12	0.421438	11	0	4.8008	-1.18398e-05
2	0	0	1	0	1	1424.55	0.482632	0.483022	-0.035813	12	0.421055	11	0	17.4032	-1.72985e-05
2	1	0	0	0	0	1437.02	0.479781	0.480052	0.0309052	13	0.420976	11	0	5.701	1.48361e-05
2	1	0	0	0	0	1449.63	0.542793	0.543198	0.0373526	13	0.421389	11	0	18.3034	2.02899e-05
2	1	0	0	0	0	1462.23	0.605805	0.606185	0.160561	13	0.422318	11	0	30.9058	9.73298e-05
2	1	0	0	0	0	1474.83	0.668817	0.669157	1.05577	13	0.428784	11	0	43.5082	0.000706476
2	1	0	1	0	0	1487.23	0.669167	0.669496	1.03396	13	0.446617	11	0	55.906	0.000692235
2	1	0	1	0	0	1499.83	0.606155	0.606441	0.114364	13	0.452651	11	0	68.5084	6.93552e-05
2	0	0	1	0	0	1512.43	0.543143	0.543483	-0.0230534	13	0.452892	11	0	5.301	-1.25291e-05
2	0	0	1	0	0	1525.04	0.480131	0.480455	-0.0364698	13	0.452504	11	0	17.9034	-1.75221e-05
2	1	0	0	0	1	1537.51	0.482282	0.482613	0.0318481	14	0.452459	11	0	6.2012	1.53703e-05
2	1	0	0	0	1	1550.12	0.545294	0.545637	0.0380103	14	0.452874	11	0	18.8036	2.07398e-05
2	1	0	0	0	1	1562.72	0.608305	0.608649	0.173092	14	0.453856	11	0	31.406	0.000105352
2	1	0	1	0	1	1575.32	0.671317	0.671649	1.102	14	0.460696	11	0	44.0083	0.000740158
2	1	0	0	0	1	1587.72	0.666667	0.666974	0.968674	14	0.478343	11	0	56.406	0.000646081
2	1	0	0	0	1	1600.32	0.603655	0.604014	0.0991993	14	0.483864	11	0	69.0084	5.99178e-05
2	0	0	0	0	1	1612.92	0.540643	0.541	-0.02391	14	0.484033	11	0	5.901	-1.29353e-05
2	0	0	0	0	1	1625.53	0.477631	0.477961	-0.0357274	14	0.483637	11	0	18.5034	-1.70763e-05
2	1	0	1	0	0	1638	0.484782	0.485124	0.0307591	15	0.483626	11	0	6.7012	1.4922e-05
2	1	0	1	0	0	1650.61	0.547794	0.548118	0.0383124	15	0.484044	11	0	19.3036	2.09997e-05
2	1	0	1	0	0	1663.21	0.610806	0.61115	0.186501	15	0.485083	11	0	31.906	0.00011398
2	1	0	1	0	0	1675.81	0.673818	0.674114	1.15065	15	0.492336	11	0	44.5084	0.000775668
2	1	0	0	0	0	1688.21	0.664166	0.664509	0.905274	15	0.509737	11	0	56.9062	0.000601562
2	1	0	0	0	0	1700.81	0.601154	0.601434	0.0841078	15	0.514772	11	0	69.5086	5.05853e-05
2	0	0	0	0	0	1713.41	0.538142	0.538544	-0.0251451	15	0.514876	11	0	6.5012	-1.35417e-05
2	0	0	0	0	0	1726.02	0.47513	0.475445	-0.036194	15	0.514479	11	0	19.1036	-1.72083e-05
2	0	0	0	0	0	1731.04	0.450001	0.450418	-0.0422979	15	0.514289	11	0	24.1246	-1.90518e-05