Folder: SI_for_publications/ACS_Catal_2026/Figures_Na_K/main_figures/data/EC/20240401_2-128_CV_cycles_alpha_gamma/alpha (part 3)

File: 20240328_2-128_005_alpha_K-2_02_PEIS_C01.mpt
EC-Lab ASCII FILE
Nb header lines : 63

Potentio Electrochemical Impedance Spectroscopy

Run on channel : 1 (SN 66412)
User :
CE vs. WE compliance from -10 V to 10 V
Electrode connection : standard
Potential control : Ewe
Ewe ctrl range : min = -1.00 V, max = 1.00 V
Safety Limits :
	Do not start on E overload
Acquisition started on : 04/01/2024 19:56:53.320
Loaded Setting File :  C:\Users\NakamuraT\Documents\EC-Lab\Data\Yatsuzuka\20240328_2-129_UV-vis_K_Na_diff\20240328_2-129_001_preconditioning+CV_inK.mps
Saved on :
	File : 20240328_2-128_005_alpha_K-2_02_PEIS_C01.mpr
	Directory : C:\Users\NakamuraT\Documents\EC-Lab\Data\Yatsuzuka\20240401_2-128_CV_cycles_alpha_gamma\
	Host : 192.109.209.100
Device : SP-150e (SN .003411)
Address : 192.109.209.236
EC-Lab for windows v11.50 (software)
Internet server v11.50 (firmware)
Command interpretor v11.50 (firmware)
Electrode material :
Initial state :
Electrolyte :
Comments :
Electrode surface area : 0.001 cm2
Characteristic mass : 0.001 g
Equivalent Weight : 0.000 g/eq.
Density : 0.000 g/cm3
Volume (V) : 0.001 cm3
Cycle Definition : Charge/Discharge alternance
Mode                Single sine
E (V)               0.4500
vs.                 Ref
tE (h:m:s)          0:00:0.0000
record              0
dI                  0.000
unit dI             mA
dt (s)              0.000
fi                  500.000
unit fi             kHz
ff                  1.000
unit ff             Hz
Nd                  6
Points              per decade
spacing             Logarithmic
Va (mV)             10.0
pw                  0.10
Na                  2
corr                0
E range min (V)     -1.000
E range max (V)     1.000
I Range             Auto
Bandwidth           5
nc cycles           0
goto Ns'            0
nr cycles           0
inc. cycle          0

freq/Hz	Re(Z)/Ohm	-Im(Z)/Ohm	|Z|/Ohm	Phase(Z)/deg	time/s	<Ewe>/V	<I>/mA	Cs/uF	Cp/uF	cycle number	I Range	|Ewe|/V	|I|/A	Ns	(Q-Qo)/mA.h	Re(Y)/Ohm-1	Im(Y)/Ohm-1	|Y|/Ohm-1	Phase(Y)/deg	Re(C)/nF	Im(C)/nF	|C|/nF	Phase(C)/deg	Re(M)	Im(M)	|M|	Phase(M)/deg	Re(Permittivity)	Im(Permittivity)	|Permittivity|	Phase(Permittivity)/deg	Re(Resistivity)/Ohm.cm	Im(Resistivity)/Ohm.cm	|Resistivity|/Ohm.cm	Phase(Resistivity)/deg	Re(Conductivity)/mS/cm	Im(Conductivity)/mS/cm	|Conductivity|/mS/cm	Phase(Conductivity)/deg	Tan(Delta)	Loss Angle(Delta)/deg	dq/mA.h
500019	34.9619	-0.400609	34.9642	0.656492	200.666	0.450429	0.104444	-0.794536	-0.000104306	1	11	0.00816427	0.000233504	0	4.93794e-05	0.0285988	-0.000327698	0.0286007	-0.656492	-0.104306	9.10295	9.10355	-90.6565	0.0000000E+000	0.0000000E+000	0.0000000E+000	90.6565	0.0000000E+000	0.0000000E+000	0.0000000E+000	-90.6565	0.0000000E+000	0.0000000E+000	0.0000000E+000	0.656492	0.0000000E+000	0.0000000E+000	0.0000000E+000	-0.656492	87.2719	89.3435	4.93794e-05
231063	21.8589	-1.92473	21.9435	5.03204	201.949	0.450263	-0.00588316	-0.357867	-0.00275326	1	10	0.010787	0.000491582	0	5.14273e-05	0.0453959	-0.00399721	0.0455716	-5.03204	-2.75326	31.2685	31.3895	-95.032	0.0000000E+000	0.0000000E+000	0.0000000E+000	95.032	0.0000000E+000	0.0000000E+000	0.0000000E+000	-95.032	0.0000000E+000	0.0000000E+000	0.0000000E+000	5.03204	0.0000000E+000	0.0000000E+000	0.0000000E+000	-5.03204	11.3569	84.968	-8.49962e-07
106786	20.0844	-0.616891	20.0939	1.75928	202.793	0.450266	-0.0107401	-2.416	-0.00227711	1	10	0.0107359	0.000534286	0	4.85148e-05	0.0497429	-0.00152785	0.0497664	-1.75928	-2.27711	74.1371	74.1721	-91.7593	0.0000000E+000	0.0000000E+000	0.0000000E+000	91.7593	0.0000000E+000	0.0000000E+000	0.0000000E+000	-91.7593	0.0000000E+000	0.0000000E+000	0.0000000E+000	1.75928	0.0000000E+000	0.0000000E+000	0.0000000E+000	-1.75928	32.5575	88.2407	-1.20172e-06
49352.4	19.7681	-0.248269	19.7697	0.719543	203.637	0.450265	-0.012843	-12.9894	-0.0020485	1	10	0.0104511	0.000528645	0	4.51612e-05	0.0505785	-0.000635219	0.0505825	-0.719543	-2.0485	163.109	163.122	-90.7195	0.0000000E+000	0.0000000E+000	0.0000000E+000	90.7195	0.0000000E+000	0.0000000E+000	0.0000000E+000	-90.7195	0.0000000E+000	0.0000000E+000	0.0000000E+000	0.719543	0.0000000E+000	0.0000000E+000	0.0000000E+000	-0.719543	79.6238	89.2805	-1.71556e-06
22806.6	19.6845	-0.115502	19.6849	0.336187	204.481	0.450271	-0.0144365	-60.4187	-0.0020801	1	10	0.010209	0.00051862	0	4.07798e-05	0.0507995	-0.000298073	0.0508004	-0.336187	-2.08011	354.503	354.509	-90.3362	0.0000000E+000	0.0000000E+000	0.0000000E+000	90.3362	0.0000000E+000	0.0000000E+000	0.0000000E+000	-90.3362	0.0000000E+000	0.0000000E+000	0.0000000E+000	0.336187	0.0000000E+000	0.0000000E+000	0.0000000E+000	-0.336187	170.426	89.6638	-1.89561e-06
10540.4	19.6702	-0.0535523	19.6703	0.155988	205.325	0.450277	-0.0150728	-281.959	-0.00208988	1	10	0.0101446	0.000515733	0	3.7372e-05	0.0508379	-0.000138407	0.0508381	-0.155988	-2.08992	767.63	767.633	-90.156	0.0000000E+000	0.0000000E+000	0.0000000E+000	90.156	0.0000000E+000	0.0000000E+000	0.0000000E+000	-90.156	0.0000000E+000	0.0000000E+000	0.0000000E+000	0.155988	0.0000000E+000	0.0000000E+000	0.0000000E+000	-0.155988	367.308	89.844	-1.86436e-06
4871.56	19.6725	-0.0134037	19.6725	0.0390379	206.149	0.450299	-0.0156699	-2437.41	-0.00113151	1	10	0.0108199	0.00055	0	3.36718e-05	0.0508324	-3.46342e-05	0.0508324	-0.0390379	-1.13156	1660.71	1660.71	-90.039	0.0000000E+000	0.0000000E+000	0.0000000E+000	90.039	0.0000000E+000	0.0000000E+000	0.0000000E+000	-90.039	0.0000000E+000	0.0000000E+000	0.0000000E+000	0.0390379	0.0000000E+000	0.0000000E+000	0.0000000E+000	-0.0390379	1467.69	89.961	-2.46806e-06
2250.72	19.6756	0.0216268	19.6756	-0.0629778	207.079	0.450292	-0.0167969	3269.69	0.00395035	1	10	0.0109946	0.000558796	0	2.9153e-05	0.0508243	5.58646e-05	0.0508244	0.0629778	3.95053	3593.94	3593.94	-89.937	0.0000000E+000	0.0000000E+000	0.0000000E+000	89.937	0.0000000E+000	0.0000000E+000	0.0000000E+000	-89.937	0.0000000E+000	0.0000000E+000	0.0000000E+000	-0.0629778	0.0000000E+000	0.0000000E+000	0.0000000E+000	0.0629778	909.778	89.937	-2.56234e-06
1040.33	19.6764	0.0465828	19.6765	-0.135644	208.232	0.450294	-0.0163939	3284.15	0.0184068	1	10	0.0100578	0.000511158	0	2.32325e-05	0.050822	0.000120318	0.0508221	0.135644	18.4067	7774.98	7775	-89.8644	0.0000000E+000	0.0000000E+000	0.0000000E+000	89.8644	0.0000000E+000	0.0000000E+000	0.0000000E+000	-89.8644	0.0000000E+000	0.0000000E+000	0.0000000E+000	-0.135644	0.0000000E+000	0.0000000E+000	0.0000000E+000	0.135644	422.397	89.8644	-1.86687e-06
480.769	19.6982	0.0763641	19.6983	-0.222118	209.162	0.450287	-0.0177336	4335.05	0.0651498	1	10	0.0100687	0.000511144	0	1.87025e-05	0.0507653	0.000196802	0.0507657	0.222118	65.1489	16805.5	16805.6	-89.7779	0.0000000E+000	0.0000000E+000	0.0000000E+000	89.7779	0.0000000E+000	0.0000000E+000	0.0000000E+000	-89.7779	0.0000000E+000	0.0000000E+000	0.0000000E+000	-0.222118	0.0000000E+000	0.0000000E+000	0.0000000E+000	0.222118	257.951	89.7779	-2.27572e-06
222.061	19.6966	0.165737	19.6973	-0.482105	210.086	0.450302	-0.0185378	4324.42	0.306166	1	10	0.0100705	0.000511266	0	1.38216e-05	0.0507667	0.000427177	0.0507684	0.482105	306.168	36385.4	36386.7	-89.5179	0.0000000E+000	0.0000000E+000	0.0000000E+000	89.5179	0.0000000E+000	0.0000000E+000	0.0000000E+000	-89.5179	0.0000000E+000	0.0000000E+000	0.0000000E+000	-0.482105	0.0000000E+000	0.0000000E+000	0.0000000E+000	0.482105	118.842	89.5179	-2.74819e-06
102.667	19.7104	0.344384	19.7134	-1.00098	211.023	0.450295	-0.018883	4501.38	1.37375	1	10	0.010076	0.000511123	0	9.55424e-06	0.0507192	0.000886174	0.0507269	1.00098	1373.74	78624.8	78636.8	-88.999	0.0000000E+000	0.0000000E+000	0.0000000E+000	88.999	0.0000000E+000	0.0000000E+000	0.0000000E+000	-88.999	0.0000000E+000	0.0000000E+000	0.0000000E+000	-1.00098	0.0000000E+000	0.0000000E+000	0.0000000E+000	1.00098	57.2339	88.999	-2.09814e-06
47.4443	19.7665	0.678474	19.7781	-1.96587	212.178	0.450276	-0.00158185	4944.28	5.81833	1	11	0.0100775	0.00050953	0	5.86417e-06	0.0505311	0.00173445	0.0505609	1.96587	5818.33	169510	169610	-88.0341	0.0000000E+000	0.0000000E+000	0.0000000E+000	88.0341	0.0000000E+000	0.0000000E+000	0.0000000E+000	-88.0341	0.0000000E+000	0.0000000E+000	0.0000000E+000	-1.96587	0.0000000E+000	0.0000000E+000	0.0000000E+000	1.96587	29.1338	88.0341	-1.35168e-06
21.9144	19.7925	1.41705	19.8432	-4.0951	213.045	0.450265	-0.000979577	5125.14	26.1367	1	11	0.0100789	0.000507928	0	4.35769e-06	0.0502664	0.00359882	0.0503951	4.0951	26136.7	365063	365997	-85.9049	0.0000000E+000	0.0000000E+000	0.0000000E+000	85.9049	0.0000000E+000	0.0000000E+000	0.0000000E+000	-85.9049	0.0000000E+000	0.0000000E+000	0.0000000E+000	-4.0951	0.0000000E+000	0.0000000E+000	0.0000000E+000	4.0951	13.9675	85.9049	-1.29293e-06
10.1329	19.8899	3.07396	20.1261	-8.78545	213.972	0.450285	-0.00295742	5109.6	119.196	1	11	0.010079	0.000500791	0	7.31022e-06	0.0491038	0.0075889	0.0496868	8.78545	119197	771258	780414	-81.2145	0.0000000E+000	0.0000000E+000	0.0000000E+000	81.2145	0.0000000E+000	0.0000000E+000	0.0000000E+000	-81.2145	0.0000000E+000	0.0000000E+000	0.0000000E+000	-8.78545	0.0000000E+000	0.0000000E+000	0.0000000E+000	8.78545	6.47047	81.2145	3.06764e-06
4.68375	20.0994	6.29452	21.062	-17.389	214.822	0.450283	-0.00230181	5398.38	482.159	1	11	0.0100877	0.000478953	0	9.29677e-06	0.045309	0.0141894	0.0474789	17.389	482159	1.53961e+06	1.61334e+06	-72.611	0.0000000E+000	0.0000000E+000	0.0000000E+000	72.611	0.0000000E+000	0.0000000E+000	0.0000000E+000	-72.611	0.0000000E+000	0.0000000E+000	0.0000000E+000	-17.389	0.0000000E+000	0.0000000E+000	0.0000000E+000	17.389	3.19316	72.611	6.03235e-06
2.16533	20.6593	12.9555	24.3855	-32.0919	216.535	0.450293	-0.000928425	5673.4	1601.36	1	11	0.0100957	0.000414004	0	-2.08154e-06	0.0347419	0.0217867	0.041008	32.0919	1.60136e+06	2.55358e+06	3.01416e+06	-57.9081	0.0000000E+000	0.0000000E+000	0.0000000E+000	57.9081	0.0000000E+000	0.0000000E+000	0.0000000E+000	-57.9081	0.0000000E+000	0.0000000E+000	0.0000000E+000	-32.0919	0.0000000E+000	0.0000000E+000	0.0000000E+000	32.0919	1.59464	57.9081	-8.68654e-06
1.00006	21.4583	27.4562	34.8468	-51.9907	221.195	0.450298	0.000756612	5796.32	3598.38	1	12	0.0100983	0.000289791	0	9.34244e-06	0.0176713	0.0226107	0.028697	51.9907	3.59838e+06	2.8123e+06	4.56698e+06	-38.0093	0.0000000E+000	0.0000000E+000	0.0000000E+000	38.0093	0.0000000E+000	0.0000000E+000	0.0000000E+000	-38.0093	0.0000000E+000	0.0000000E+000	0.0000000E+000	-51.9907	0.0000000E+000	0.0000000E+000	0.0000000E+000	51.9907	0.781547	38.0093	1.17951e-05

File: 20240328_2-128_005_alpha_K-2_03_CVA_C01.mpt
EC-Lab ASCII FILE
Nb header lines : 66

Cyclic Voltammetry Advanced

Run on channel : 1 (SN 66412)
User :
CE vs. WE compliance from -10 V to 10 V
Electrode connection : standard
Potential control : Ewe
Ewe ctrl range : min = -1.00 V, max = 1.00 V
Safety Limits :
	Do not start on E overload
Acquisition started on : 04/01/2024 19:56:53.320
Loaded Setting File :  C:\Users\NakamuraT\Documents\EC-Lab\Data\Yatsuzuka\20240328_2-129_UV-vis_K_Na_diff\20240328_2-129_001_preconditioning+CV_inK.mps
Saved on :
	File : 20240328_2-128_005_alpha_K-2_03_CVA_C01.mpr
	Directory : C:\Users\NakamuraT\Documents\EC-Lab\Data\Yatsuzuka\20240401_2-128_CV_cycles_alpha_gamma\
	Host : 192.109.209.100
Device : SP-150e (SN .003411)
Address : 192.109.209.236
EC-Lab for windows v11.50 (software)
Internet server v11.50 (firmware)
Command interpretor v11.50 (firmware)
Electrode material :
Initial state :
Electrolyte :
Comments :
Electrode surface area : 0.001 cm2
Characteristic mass : 0.001 g
Equivalent Weight : 0.000 g/eq.
Density : 0.000 g/cm3
Volume (V) : 0.001 cm3
Cycle Definition : Charge/Discharge alternance
Ei (V)              0.450
vs.                 Ref
ti (h:m:s)          0:00:10.0000
dti (s)             0.0000
dE/dt               5.000
dE/dt unit          mV/s
E1 (V)              0.700
vs.                 Ref
t1 (h:m:s)          0:00:0.0000
dt1 (s)             0.1000
Step percent        50
N                   10
E range min (V)     -1.000
E range max (V)     1.000
I Range             10 mA
I Range min         Unset
I Range max         Unset
I Range init        Unset
Bandwidth           5
E2 (V)              0.450
vs.                 Ref
t2 (h:m:s)          0:00:0.0000
dt2 (s)             0.1000
nc cycles           14
nr                  1
Reverse Scan        0
Ef (V)              0.000
vs.                 Eoc
tf (h:m:s)          0:00:0.0000
dtf (s)             0.1000

mode	ox/red	error	control changes	Ns changes	counter inc.	time/s	control/V	Ewe/V	<I>/mA	cycle number	(Q-Qo)/C	I Range	Ns	step time/s	P/W
2	0	0	0	0	0	231.314	0.449935	0.450361	-0.00491061	1	0.0000000E+000	11	0	0.000000000000000E+000	-2.21154e-06
2	1	0	0	0	0	243.871	0.512721	0.513025	0.0311006	1	0.000381137	11	0	12.502	1.59554e-05
2	1	0	1	0	0	256.474	0.575732	0.576075	0.0540504	1	0.000852689	11	0	25.1042	3.11371e-05
2	1	0	0	0	0	269.076	0.638743	0.639071	0.414612	1	0.00297251	11	0	37.7064	0.000264966
2	1	0	0	0	0	281.487	0.699153	0.69945	1.82773	1	0.0161295	11	0	50.118	0.00127841
2	1	0	1	0	0	294.09	0.636142	0.636459	0.339551	1	0.0284931	11	0	62.7202	0.00021611
2	0	0	0	0	0	306.692	0.573131	0.573419	-0.00588688	1	0.0297883	11	0	0.9002	-3.37565e-06
2	0	0	1	0	0	319.294	0.51012	0.510444	-0.0317453	1	0.0294906	11	0	13.5024	-1.62042e-05
2	1	0	1	0	1	331.768	0.45226	0.45254	0.0206495	2	0.029074	11	0	0.2	9.34473e-06
2	1	0	0	0	1	344.37	0.515271	0.515601	0.0286553	2	0.0294239	11	0	12.8022	1.47747e-05
2	1	0	1	0	1	356.973	0.578282	0.57861	0.0531964	2	0.0298712	11	0	25.4044	3.07799e-05
2	1	0	0	0	1	369.575	0.641293	0.64161	0.444297	2	0.0321109	11	0	38.0066	0.000285065
2	1	0	1	0	1	381.976	0.696652	0.696923	1.73792	2	0.0458559	11	0	50.4081	0.0012112
2	1	0	1	0	1	394.578	0.633641	0.63392	0.305026	2	0.0574671	11	0	63.0103	0.000193362
2	0	0	1	0	1	407.181	0.57063	0.570957	-0.00893132	2	0.0585796	11	0	1.4003	-5.0994e-06
2	0	0	0	0	1	419.783	0.50762	0.507879	-0.0320063	2	0.0582692	11	0	14.0024	-1.62553e-05
2	1	0	0	0	0	432.257	0.454761	0.455042	0.0244458	3	0.0578801	11	0	0.7	1.11239e-05
2	1	0	1	0	0	444.859	0.517771	0.518066	0.0284802	3	0.05823	11	0	13.3022	1.47546e-05
2	1	0	0	0	0	457.461	0.580782	0.58106	0.0556993	3	0.0586861	11	0	25.9044	3.23646e-05
2	1	0	1	0	0	470.064	0.643793	0.644049	0.480145	3	0.0611105	11	0	38.5066	0.000309237
2	1	0	1	0	0	482.465	0.694152	0.694413	1.661	3	0.0754602	11	0	50.9082	0.00115342
2	1	0	0	0	0	495.067	0.631141	0.631455	0.273382	3	0.0863643	11	0	63.5104	0.000172628
2	0	0	1	0	0	507.67	0.56813	0.568408	-0.0118736	3	0.0873172	11	0	2.1004	-6.74905e-06
2	0	0	0	0	0	520.272	0.505119	0.505427	-0.0324397	3	0.0869958	11	0	14.7026	-1.63959e-05
2	1	0	0	0	1	532.746	0.457261	0.457599	0.0251136	4	0.0866363	11	0	1.2002	1.14919e-05
2	1	0	1	0	1	545.348	0.520272	0.520528	0.0288678	4	0.0869865	11	0	13.8024	1.50265e-05
2	1	0	0	0	1	557.95	0.583283	0.583592	0.0593179	4	0.0874537	11	0	26.4046	3.46175e-05
2	1	0	1	0	1	570.553	0.646294	0.646569	0.518824	4	0.090083	11	0	39.0068	0.000335456
2	1	0	0	0	1	582.954	0.691652	0.691988	1.58149	4	0.104954	11	0	51.4082	0.00109437
2	1	0	1	0	1	595.556	0.628641	0.628988	0.243667	4	0.115155	11	0	64.0104	0.000153264
2	0	0	0	0	1	608.158	0.56563	0.565938	-0.0135422	4	0.115963	11	0	2.5004	-7.66402e-06
2	0	0	1	0	1	620.761	0.502619	0.50295	-0.0321856	4	0.115633	11	0	15.1026	-1.61878e-05
2	1	0	1	0	0	633.235	0.459761	0.460069	0.0259809	5	0.115304	11	0	1.7002	1.1953e-05
2	1	0	0	0	0	645.837	0.522772	0.523064	0.0288723	5	0.115655	11	0	14.3024	1.5102e-05
2	1	0	1	0	0	658.439	0.585783	0.586127	0.0627974	5	0.116136	11	0	26.9046	3.68073e-05
2	1	0	0	0	0	671.041	0.648794	0.649035	0.558593	5	0.118986	11	0	39.5068	0.000362546
2	1	0	0	0	0	683.443	0.689151	0.689429	1.50262	5	0.134314	11	0	51.9084	0.00103595
2	1	0	1	0	0	696.045	0.62614	0.626442	0.216806	5	0.14382	11	0	64.5106	0.000135816
2	0	0	0	0	0	708.647	0.563129	0.563451	-0.0158372	5	0.144499	11	0	3.0006	-8.92348e-06
2	0	0	1	0	0	721.25	0.500118	0.500483	-0.0324037	5	0.144162	11	0	15.6028	-1.62175e-05
2	1	0	1	0	1	733.724	0.462262	0.462546	0.0264147	6	0.143863	11	0	2.2004	1.2218e-05
2	1	0	0	0	1	746.326	0.525273	0.525611	0.0290209	6	0.144215	11	0	14.8026	1.52537e-05
2	1	0	1	0	1	758.928	0.588284	0.588614	0.06672	6	0.144711	11	0	27.4048	3.92723e-05
2	1	0	0	0	1	771.53	0.651295	0.651538	0.601986	6	0.147807	11	0	40.007	0.000392217
2	1	0	1	0	1	783.932	0.686651	0.68694	1.42366	6	0.163535	11	0	52.4084	0.000977967
2	1	0	0	0	1	796.534	0.62364	0.623967	0.191712	6	0.172392	11	0	65.0106	0.000119622
2	0	0	1	0	1	809.136	0.560629	0.560949	-0.0175396	6	0.172955	11	0	3.7006	-9.83881e-06
2	0	0	0	0	1	821.738	0.497618	0.497924	-0.0328099	6	0.17261	11	0	16.3028	-1.63368e-05
2	1	0	0	0	0	834.213	0.464762	0.465115	0.0268829	7	0.172342	11	0	2.7004	1.25037e-05
2	1	0	1	0	0	846.815	0.527773	0.528084	0.0287263	7	0.172694	11	0	15.3026	1.51699e-05
2	1	0	0	0	0	859.417	0.590784	0.591118	0.0715161	7	0.173208	11	0	27.9048	4.22745e-05
2	1	0	1	0	0	872.019	0.653795	0.654062	0.648528	7	0.176569	11	0	40.507	0.000424178
2	1	0	1	0	0	884.421	0.68415	0.684462	1.35834	7	0.192664	11	0	52.9086	0.00092973
2	1	0	0	0	0	897.023	0.621139	0.621434	0.168241	7	0.200904	11	0	65.5108	0.00010455
2	0	0	1	0	0	909.625	0.558129	0.558445	-0.018961	7	0.201361	11	0	4.1008	-1.05887e-05
2	0	0	0	0	0	922.227	0.495118	0.495455	-0.0329501	7	0.201009	11	0	16.703	-1.63253e-05
2	1	0	0	0	1	934.702	0.467263	0.467562	0.0269737	8	0.200771	11	0	3.2006	1.26118e-05
2	1	0	1	0	1	947.304	0.530274	0.530644	0.0290147	8	0.201124	11	0	15.8028	1.53965e-05
2	1	0	1	0	1	959.906	0.593285	0.593527	0.0768179	8	0.201659	11	0	28.4049	4.55935e-05
2	1	0	1	0	1	972.508	0.656296	0.656638	0.694859	8	0.2053	11	0	41.0071	0.00045627
2	1	0	0	0	1	984.91	0.68165	0.68192	1.27592	8	0.221701	11	0	53.4086	0.000870074
2	1	0	1	0	1	997.512	0.618639	0.618905	0.147783	8	0.229317	11	0	66.0108	9.14639e-05
2	0	0	0	0	1	1010.11	0.555628	0.55596	-0.0201663	8	0.229681	11	0	4.7008	-1.12116e-05
[...]
2	0	0	1	0	1	1211.09	0.550627	0.55092	-0.0224229	10	0.286052	11	0	5.701	-1.23532e-05
2	0	0	0	0	1	1223.69	0.487616	0.487898	-0.0333154	10	0.285685	11	0	18.3032	-1.62545e-05
2	1	0	0	0	0	1236.17	0.474764	0.475066	0.027211	11	0.28554	11	0	4.7008	1.2927e-05
2	1	0	1	0	0	1248.77	0.537775	0.538081	0.0302952	11	0.285896	11	0	17.303	1.63013e-05
2	1	0	0	0	0	1261.37	0.600786	0.601095	0.096482	11	0.28651	11	0	29.9052	5.79948e-05
2	1	0	1	0	0	1273.97	0.663797	0.66404	0.84818	11	0.291134	11	0	42.5074	0.000563226
2	1	0	0	0	0	1286.38	0.674149	0.674442	1.06867	11	0.308011	11	0	54.9088	0.000720758
2	1	0	1	0	0	1298.98	0.611138	0.611443	0.0957691	11	0.313997	11	0	67.511	5.85574e-05
2	0	0	0	0	0	1311.58	0.548127	0.54843	-0.0230563	11	0.31414	11	0	6.101	-1.26448e-05
2	0	0	1	0	0	1324.18	0.485116	0.485482	-0.0331848	11	0.313768	11	0	18.7032	-1.61106e-05
2	1	0	1	0	1	1336.66	0.477264	0.47753	0.0272758	12	0.313654	11	0	5.2008	1.3025e-05
2	1	0	0	0	1	1349.26	0.540275	0.540577	0.0306967	12	0.31401	11	0	17.803	1.65939e-05
2	1	0	1	0	1	1361.86	0.603286	0.603563	0.10515	12	0.314657	11	0	30.4052	6.34646e-05
2	1	0	0	0	1	1374.46	0.666297	0.666573	0.904163	12	0.319654	11	0	43.0074	0.00060269
2	1	0	0	0	1	1386.87	0.671648	0.67193	1.00664	12	0.336603	11	0	55.409	0.000676392
2	1	0	1	0	1	1399.47	0.608637	0.608946	0.0819545	12	0.3421	11	0	68.0112	4.99059e-05
2	0	0	0	0	1	1412.07	0.545626	0.545947	-0.0241651	12	0.342183	11	0	6.8012	-1.31929e-05
2	0	0	1	0	1	1424.67	0.482615	0.482909	-0.033509	12	0.341807	11	0	19.4034	-1.61818e-05
2	1	0	1	0	0	1437.15	0.479765	0.480076	0.0272627	13	0.341724	11	0	5.701	1.30882e-05
2	1	0	0	0	0	1449.75	0.542776	0.543051	0.0309966	13	0.342082	11	0	18.3032	1.68327e-05
2	1	0	1	0	0	1462.35	0.605787	0.606071	0.114242	13	0.342767	11	0	30.9054	6.92386e-05
2	1	0	0	0	0	1474.95	0.668798	0.669099	0.960799	13	0.348163	11	0	43.5076	0.00064287
2	1	0	1	0	0	1487.35	0.669148	0.66942	0.949289	13	0.365095	11	0	55.909	0.000635472
2	1	0	0	0	0	1499.96	0.606137	0.606454	0.0696716	13	0.370139	11	0	68.5112	4.22526e-05
2	0	0	1	0	0	1512.56	0.543126	0.543425	-0.0245623	13	0.370172	11	0	7.2012	-1.33478e-05
2	0	0	0	0	0	1525.16	0.480115	0.480416	-0.0335995	13	0.369792	11	0	19.8034	-1.61417e-05
2	1	0	0	0	1	1537.63	0.482265	0.48257	0.0277527	14	0.36974	11	0	6.201	1.33926e-05
2	1	0	1	0	1	1550.24	0.545276	0.545609	0.0316325	14	0.3701	11	0	18.8032	1.7259e-05
2	1	0	0	0	1	1562.84	0.608287	0.608641	0.12466	14	0.370825	11	0	31.4054	7.58729e-05
2	1	0	1	0	1	1575.44	0.671298	0.671564	1.01749	14	0.376647	11	0	44.0076	0.000683312
2	1	0	1	0	1	1587.84	0.666647	0.666925	0.88825	14	0.393503	11	0	56.4092	0.000592396
2	1	0	0	0	1	1600.45	0.603636	0.603901	0.0579077	14	0.39811	11	0	69.0114	3.49705e-05
2	0	0	1	0	1	1613.05	0.540625	0.540941	-0.0256626	14	0.398096	11	0	7.7014	-1.3882e-05
2	0	0	0	0	1	1625.65	0.477615	0.477852	-0.0336207	14	0.397712	11	0	20.3036	-1.60657e-05
2	1	0	0	0	0	1638.12	0.484766	0.485051	0.0273403	15	0.397692	11	0	6.7012	1.32614e-05
2	1	0	1	0	0	1650.73	0.547777	0.548079	0.0316251	15	0.398053	11	0	19.3034	1.7333e-05
2	1	0	0	0	0	1663.33	0.610788	0.611096	0.135905	15	0.398826	11	0	31.9056	8.30511e-05
2	1	0	1	0	0	1675.93	0.673799	0.67411	1.08247	15	0.405095	11	0	44.5078	0.000729701
2	1	0	0	0	0	1688.33	0.664147	0.66442	0.823841	15	0.421825	11	0	56.9092	0.000547376
2	1	0	1	0	0	1700.93	0.601136	0.601431	0.0482768	15	0.425996	11	0	69.5114	2.90352e-05
2	0	0	0	0	0	1713.54	0.538125	0.538463	-0.0260974	15	0.425942	11	0	8.3014	-1.40525e-05
2	0	0	1	0	0	1726.14	0.475114	0.475409	-0.0338986	15	0.425556	11	0	20.9036	-1.61157e-05
2	0	0	1	0	0	1731.16	0.449985	0.450246	-0.0392738	15	0.425378	11	0	25.9214	-1.76829e-05