Folder: SI_for_publications/ACS_Catal_2026/Figures_Na_K/main_figures/data/EC/20240401_2-128_CV_cycles_alpha_gamma/alpha (part 2)

File: 20240328_2-128_003_alpha_Na-1_02_PEIS_C01.mpt
EC-Lab ASCII FILE
Nb header lines : 63

Potentio Electrochemical Impedance Spectroscopy

Run on channel : 1 (SN 66412)
User :
CE vs. WE compliance from -10 V to 10 V
Electrode connection : standard
Potential control : Ewe
Ewe ctrl range : min = -1.00 V, max = 1.00 V
Safety Limits :
	Do not start on E overload
Acquisition started on : 04/01/2024 19:24:04.746
Loaded Setting File :  C:\Users\NakamuraT\Documents\EC-Lab\Data\Yatsuzuka\20240328_2-129_UV-vis_K_Na_diff\20240328_2-129_001_preconditioning+CV_inK.mps
Saved on :
	File : 20240328_2-128_003_alpha_Na-1_02_PEIS_C01.mpr
	Directory : C:\Users\NakamuraT\Documents\EC-Lab\Data\Yatsuzuka\20240401_2-128_CV_cycles_alpha_gamma\
	Host : 192.109.209.100
Device : SP-150e (SN .003411)
Address : 192.109.209.236
EC-Lab for windows v11.50 (software)
Internet server v11.50 (firmware)
Command interpretor v11.50 (firmware)
Electrode material :
Initial state :
Electrolyte :
Comments :
Electrode surface area : 0.001 cm2
Characteristic mass : 0.001 g
Equivalent Weight : 0.000 g/eq.
Density : 0.000 g/cm3
Volume (V) : 0.001 cm3
Cycle Definition : Charge/Discharge alternance
Mode                Single sine
E (V)               0.4500
vs.                 Ref
tE (h:m:s)          0:00:0.0000
record              0
dI                  0.000
unit dI             mA
dt (s)              0.000
fi                  500.000
unit fi             kHz
ff                  1.000
unit ff             Hz
Nd                  6
Points              per decade
spacing             Logarithmic
Va (mV)             10.0
pw                  0.10
Na                  2
corr                0
E range min (V)     -1.000
E range max (V)     1.000
I Range             Auto
Bandwidth           5
nc cycles           0
goto Ns'            0
nr cycles           0
inc. cycle          0

freq/Hz	Re(Z)/Ohm	-Im(Z)/Ohm	|Z|/Ohm	Phase(Z)/deg	time/s	<Ewe>/V	<I>/mA	Cs/uF	Cp/uF	cycle number	I Range	|Ewe|/V	|I|/A	Ns	(Q-Qo)/mA.h	Re(Y)/Ohm-1	Im(Y)/Ohm-1	|Y|/Ohm-1	Phase(Y)/deg	Re(C)/nF	Im(C)/nF	|C|/nF	Phase(C)/deg	Re(M)	Im(M)	|M|	Phase(M)/deg	Re(Permittivity)	Im(Permittivity)	|Permittivity|	Phase(Permittivity)/deg	Re(Resistivity)/Ohm.cm	Im(Resistivity)/Ohm.cm	|Resistivity|/Ohm.cm	Phase(Resistivity)/deg	Re(Conductivity)/mS/cm	Im(Conductivity)/mS/cm	|Conductivity|/mS/cm	Phase(Conductivity)/deg	Tan(Delta)	Loss Angle(Delta)/deg	dq/mA.h
500019	36.3771	-4.38351	36.6402	6.87113	200.716	0.450448	0.127293	-0.0726126	-0.0010393	1	11	0.00776325	0.000211878	0	5.67136e-05	0.0270964	-0.00326517	0.0272924	-6.87113	-1.0393	8.62473	8.68712	-96.8711	0.0000000E+000	0.0000000E+000	0.0000000E+000	96.8711	0.0000000E+000	0.0000000E+000	0.0000000E+000	-96.8711	0.0000000E+000	0.0000000E+000	0.0000000E+000	6.87113	0.0000000E+000	0.0000000E+000	0.0000000E+000	-6.87113	8.29861	83.1289	5.67136e-05
231063	22.1114	-3.3141	22.3584	8.52414	201.864	0.450276	-0.00492781	-0.207838	-0.0045664	1	10	0.0106511	0.00047638	0	6.15719e-05	0.0442318	-0.00662954	0.0447259	-8.52414	-4.5664	30.4667	30.807	-98.5241	0.0000000E+000	0.0000000E+000	0.0000000E+000	98.5241	0.0000000E+000	0.0000000E+000	0.0000000E+000	-98.5241	0.0000000E+000	0.0000000E+000	0.0000000E+000	8.52414	0.0000000E+000	0.0000000E+000	0.0000000E+000	-8.52414	6.67193	81.4759	8.10134e-07
106786	20.3315	-1.13992	20.3634	3.20905	202.709	0.45029	-0.0104379	-1.30746	-0.00409714	1	10	0.0106584	0.000523411	0	5.80137e-05	0.0490307	-0.00274901	0.0491077	-3.20905	-4.09714	73.0757	73.1905	-93.209	0.0000000E+000	0.0000000E+000	0.0000000E+000	93.209	0.0000000E+000	0.0000000E+000	0.0000000E+000	-93.209	0.0000000E+000	0.0000000E+000	0.0000000E+000	3.20905	0.0000000E+000	0.0000000E+000	0.0000000E+000	-3.20905	17.8358	86.791	-1.69592e-06
49352.4	20.0903	-0.454829	20.0955	1.29691	203.553	0.45029	-0.012384	-7.09028	-0.00363215	1	10	0.0105015	0.000522578	0	5.52513e-05	0.0497497	-0.00112629	0.0497624	-1.29691	-3.63216	160.436	160.477	-91.2969	0.0000000E+000	0.0000000E+000	0.0000000E+000	91.2969	0.0000000E+000	0.0000000E+000	0.0000000E+000	-91.2969	0.0000000E+000	0.0000000E+000	0.0000000E+000	1.29691	0.0000000E+000	0.0000000E+000	0.0000000E+000	-1.29691	44.1712	88.7031	-1.22137e-06
22806.6	19.9359	-0.210683	19.937	0.60548	204.397	0.450294	-0.0130016	-33.1231	-0.00369887	1	10	0.0103822	0.000520747	0	5.1985e-05	0.0501551	-0.00053004	0.0501579	-0.60548	-3.69889	350.006	350.026	-90.6055	0.0000000E+000	0.0000000E+000	0.0000000E+000	90.6055	0.0000000E+000	0.0000000E+000	0.0000000E+000	-90.6055	0.0000000E+000	0.0000000E+000	0.0000000E+000	0.60548	0.0000000E+000	0.0000000E+000	0.0000000E+000	-0.60548	94.6251	89.3945	-1.92153e-06
10540.4	20.0103	-0.0955955	20.0105	0.273718	205.241	0.450301	-0.0144664	-157.953	-0.00360483	1	10	0.0101926	0.000509363	0	4.85488e-05	0.0499732	-0.000238738	0.0499738	-0.273718	-3.60485	754.572	754.581	-90.2737	0.0000000E+000	0.0000000E+000	0.0000000E+000	90.2737	0.0000000E+000	0.0000000E+000	0.0000000E+000	-90.2737	0.0000000E+000	0.0000000E+000	0.0000000E+000	0.273718	0.0000000E+000	0.0000000E+000	0.0000000E+000	-0.273718	209.322	89.7263	-1.53361e-06
4871.56	20.0256	-0.0337866	20.0256	0.0966677	206.288	0.450309	-0.0158527	-966.959	-0.00275248	1	10	0.0101419	0.000506448	0	4.48681e-05	0.049936	-8.42505e-05	0.049936	-0.0966677	-2.75239	1631.42	1631.42	-90.0967	0.0000000E+000	0.0000000E+000	0.0000000E+000	90.0967	0.0000000E+000	0.0000000E+000	0.0000000E+000	-90.0967	0.0000000E+000	0.0000000E+000	0.0000000E+000	0.0966677	0.0000000E+000	0.0000000E+000	0.0000000E+000	-0.0966677	592.708	89.9033	-2.05685e-06
2250.72	20.035	0.00366673	20.035	-0.010486	207.218	0.450312	-0.0174145	19285	0.000645949	1	10	0.0104405	0.000521114	0	4.02917e-05	0.0499127	9.13482e-06	0.0499127	0.010486	0.645748	3529.47	3529.47	-89.9895	0.0000000E+000	0.0000000E+000	0.0000000E+000	89.9895	0.0000000E+000	0.0000000E+000	0.0000000E+000	-89.9895	0.0000000E+000	0.0000000E+000	0.0000000E+000	-0.010486	0.0000000E+000	0.0000000E+000	0.0000000E+000	0.010486	5464	89.9895	-2.44013e-06
1040.33	20.0107	0.0266778	20.0107	-0.0763854	208.148	0.450316	-0.0174388	5734.52	0.0101923	1	10	0.0105136	0.0005254	0	3.61291e-05	0.0499731	6.66231e-05	0.0499732	0.0763854	10.1923	7645.12	7645.13	-89.9236	0.0000000E+000	0.0000000E+000	0.0000000E+000	89.9236	0.0000000E+000	0.0000000E+000	0.0000000E+000	-89.9236	0.0000000E+000	0.0000000E+000	0.0000000E+000	-0.0763854	0.0000000E+000	0.0000000E+000	0.0000000E+000	0.0763854	750.087	89.9236	-1.83456e-06
480.769	20.0661	0.0826337	20.0662	-0.235947	209.078	0.450317	-0.0180116	4006.14	0.0679373	1	10	0.0105451	0.000525516	0	3.13639e-05	0.0498345	0.000205222	0.0498349	0.235947	67.9372	16497.3	16497.5	-89.7641	0.0000000E+000	0.0000000E+000	0.0000000E+000	89.7641	0.0000000E+000	0.0000000E+000	0.0000000E+000	-89.7641	0.0000000E+000	0.0000000E+000	0.0000000E+000	-0.235947	0.0000000E+000	0.0000000E+000	0.0000000E+000	0.235947	242.832	89.7641	-2.45607e-06
222.061	19.9581	0.164846	19.9588	-0.47323	210.002	0.450307	-0.0184893	4347.8	0.296592	1	10	0.0105466	0.000528421	0	2.65421e-05	0.0501016	0.000413819	0.0501033	0.47323	296.591	35908.7	35909.9	-89.5268	0.0000000E+000	0.0000000E+000	0.0000000E+000	89.5268	0.0000000E+000	0.0000000E+000	0.0000000E+000	-89.5268	0.0000000E+000	0.0000000E+000	0.0000000E+000	-0.47323	0.0000000E+000	0.0000000E+000	0.0000000E+000	0.47323	121.071	89.5268	-2.60972e-06
102.667	19.9983	0.283296	20.0003	-0.8116	210.939	0.45032	-0.0182542	5472.02	1.09788	1	10	0.0105546	0.000527721	0	2.23487e-05	0.0499943	0.000708222	0.0499994	0.8116	1097.88	77501.2	77509	-89.1884	0.0000000E+000	0.0000000E+000	0.0000000E+000	89.1884	0.0000000E+000	0.0000000E+000	0.0000000E+000	-89.1884	0.0000000E+000	0.0000000E+000	0.0000000E+000	-0.8116	0.0000000E+000	0.0000000E+000	0.0000000E+000	0.8116	70.5914	89.1884	-1.99053e-06
47.4443	20.1602	0.635689	20.1702	-1.80605	212.094	0.450298	-0.0012422	5277.05	5.24156	1	11	0.010557	0.000523394	0	1.8686e-05	0.0495535	0.00156252	0.0495781	1.80605	5241.55	166230	166313	-88.194	0.0000000E+000	0.0000000E+000	0.0000000E+000	88.194	0.0000000E+000	0.0000000E+000	0.0000000E+000	-88.194	0.0000000E+000	0.0000000E+000	0.0000000E+000	-1.80605	0.0000000E+000	0.0000000E+000	0.0000000E+000	1.80605	31.7139	88.194	-1.4336e-06
21.9144	20.1089	1.24776	20.1476	-3.55067	212.962	0.450297	-0.000741019	5820.46	22.3242	1	11	0.0105655	0.000524406	0	1.72262e-05	0.0495385	0.00307388	0.0496338	3.55067	22324.2	359776	360468	-86.4493	0.0000000E+000	0.0000000E+000	0.0000000E+000	86.4493	0.0000000E+000	0.0000000E+000	0.0000000E+000	-86.4493	0.0000000E+000	0.0000000E+000	0.0000000E+000	-3.55067	0.0000000E+000	0.0000000E+000	0.0000000E+000	3.55067	16.1159	86.4493	-1.53401e-06
10.1329	20.1579	2.69531	20.3373	-7.61584	213.889	0.450319	-0.0024264	5827.4	102.354	1	11	0.0105772	0.000520088	0	1.90487e-05	0.0487369	0.0065166	0.0491707	7.61584	102354	765495	772308	-82.3842	0.0000000E+000	0.0000000E+000	0.0000000E+000	82.3842	0.0000000E+000	0.0000000E+000	0.0000000E+000	-82.3842	0.0000000E+000	0.0000000E+000	0.0000000E+000	-7.61584	0.0000000E+000	0.0000000E+000	0.0000000E+000	7.61584	7.47888	82.3842	2.34764e-06
4.68375	20.3686	5.56512	21.1152	-15.2814	214.739	0.450328	-0.000328068	6105.93	424.141	1	11	0.0105727	0.000500714	0	2.23644e-05	0.0456848	0.012482	0.0473593	15.2814	424141	1.55238e+06	1.60928e+06	-74.7186	0.0000000E+000	0.0000000E+000	0.0000000E+000	74.7186	0.0000000E+000	0.0000000E+000	0.0000000E+000	-74.7186	0.0000000E+000	0.0000000E+000	0.0000000E+000	-15.2814	0.0000000E+000	0.0000000E+000	0.0000000E+000	15.2814	3.66005	74.7186	5.3446e-06
2.16533	20.8463	11.7252	23.9175	-29.356	216.454	0.450348	-0.00141323	6268.68	1506.55	1	11	0.0105844	0.000442539	0	9.47333e-06	0.0364415	0.0204969	0.0418103	29.356	1.50655e+06	2.67851e+06	3.07313e+06	-60.644	0.0000000E+000	0.0000000E+000	0.0000000E+000	60.644	0.0000000E+000	0.0000000E+000	0.0000000E+000	-60.644	0.0000000E+000	0.0000000E+000	0.0000000E+000	-29.356	0.0000000E+000	0.0000000E+000	0.0000000E+000	29.356	1.7779	60.644	-6.78203e-06
1.00006	21.4314	24.9627	32.9005	-49.3527	221.113	0.450345	0.00102487	6375.29	3670.11	1	12	0.0105877	0.000321808	0	2.80436e-05	0.0197991	0.0230614	0.0303947	49.3527	3.67011e+06	3.15092e+06	4.83715e+06	-40.6473	0.0000000E+000	0.0000000E+000	0.0000000E+000	40.6473	0.0000000E+000	0.0000000E+000	0.0000000E+000	-40.6473	0.0000000E+000	0.0000000E+000	0.0000000E+000	-49.3527	0.0000000E+000	0.0000000E+000	0.0000000E+000	49.3527	0.858537	40.6473	1.33577e-05

File: 20240328_2-128_003_alpha_Na-1_03_CVA_C01.mpt
EC-Lab ASCII FILE
Nb header lines : 66

Cyclic Voltammetry Advanced

Run on channel : 1 (SN 66412)
User :
CE vs. WE compliance from -10 V to 10 V
Electrode connection : standard
Potential control : Ewe
Ewe ctrl range : min = -1.00 V, max = 1.00 V
Safety Limits :
	Do not start on E overload
Acquisition started on : 04/01/2024 19:24:04.746
Loaded Setting File :  C:\Users\NakamuraT\Documents\EC-Lab\Data\Yatsuzuka\20240328_2-129_UV-vis_K_Na_diff\20240328_2-129_001_preconditioning+CV_inK.mps
Saved on :
	File : 20240328_2-128_003_alpha_Na-1_03_CVA_C01.mpr
	Directory : C:\Users\NakamuraT\Documents\EC-Lab\Data\Yatsuzuka\20240401_2-128_CV_cycles_alpha_gamma\
	Host : 192.109.209.100
Device : SP-150e (SN .003411)
Address : 192.109.209.236
EC-Lab for windows v11.50 (software)
Internet server v11.50 (firmware)
Command interpretor v11.50 (firmware)
Electrode material :
Initial state :
Electrolyte :
Comments :
Electrode surface area : 0.001 cm2
Characteristic mass : 0.001 g
Equivalent Weight : 0.000 g/eq.
Density : 0.000 g/cm3
Volume (V) : 0.001 cm3
Cycle Definition : Charge/Discharge alternance
Ei (V)              0.450
vs.                 Ref
ti (h:m:s)          0:00:10.0000
dti (s)             0.0000
dE/dt               5.000
dE/dt unit          mV/s
E1 (V)              0.700
vs.                 Ref
t1 (h:m:s)          0:00:0.0000
dt1 (s)             0.1000
Step percent        50
N                   10
E range min (V)     -1.000
E range max (V)     1.000
I Range             10 mA
I Range min         Unset
I Range max         Unset
I Range init        Unset
Bandwidth           5
E2 (V)              0.450
vs.                 Ref
t2 (h:m:s)          0:00:0.0000
dt2 (s)             0.1000
nc cycles           14
nr                  1
Reverse Scan        0
Ef (V)              0.000
vs.                 Eoc
tf (h:m:s)          0:00:0.0000
dtf (s)             0.1000

mode	ox/red	error	control changes	Ns changes	counter inc.	time/s	control/V	Ewe/V	<I>/mA	cycle number	(Q-Qo)/C	I Range	Ns	step time/s	P/W
2	0	0	1	0	0	231.232	0.449948	0.450221	-0.00350997	1	0.0000000E+000	11	0	0.000000000000000E+000	-1.58027e-06
2	1	0	0	0	0	243.89	0.513234	0.513525	0.0350963	1	0.000428522	11	0	12.6022	1.80228e-05
2	1	0	0	0	0	256.592	0.576746	0.577029	0.0495117	1	0.000929731	11	0	25.3046	2.85697e-05
2	1	0	1	0	0	269.294	0.640257	0.640554	0.218599	1	0.00225096	11	0	38.0068	0.000140025
2	1	0	0	0	0	281.803	0.697168	0.697474	1.00842	1	0.00966377	11	0	50.5154	0.000703347
2	1	0	0	0	0	294.505	0.633656	0.63401	0.114969	1	0.0155183	11	0	63.2178	7.28914e-05
2	0	0	1	0	0	307.207	0.570145	0.570461	-0.021908	1	0.0157923	11	0	5.0009	-1.24977e-05
2	0	0	1	0	0	319.91	0.506633	0.506978	-0.036419	1	0.0153983	11	0	17.7032	-1.84636e-05
2	1	0	1	0	1	332.487	0.456274	0.456637	0.0271281	2	0.0149849	11	0	1.0002	1.23877e-05
2	1	0	0	0	1	345.189	0.519785	0.520162	0.0329138	2	0.0153795	11	0	13.7024	1.71205e-05
2	1	0	0	0	1	357.891	0.583297	0.583626	0.0461871	2	0.0158386	11	0	26.4048	2.6956e-05
2	1	0	1	0	1	370.594	0.646809	0.647082	0.242802	2	0.0172306	11	0	39.1071	0.000157113
2	1	0	1	0	1	383.092	0.690666	0.690958	0.823123	2	0.0251398	11	0	51.6058	0.000568743
2	1	0	0	0	1	395.795	0.627155	0.627499	0.0765434	2	0.0296598	11	0	64.308	4.80309e-05
2	0	0	0	0	1	408.497	0.563643	0.563931	-0.0247517	2	0.0297411	11	0	6.7012	-1.39583e-05
2	0	0	1	0	1	421.199	0.500132	0.50049	-0.0372522	2	0.0293304	11	0	19.4034	-1.86443e-05
2	1	0	1	0	0	433.776	0.462775	0.463129	0.0304019	3	0.0290023	11	0	2.3004	1.408e-05
2	1	0	1	0	0	446.478	0.526286	0.526605	0.031609	3	0.0293956	11	0	15.0027	1.66455e-05
2	1	0	0	0	0	459.181	0.589798	0.590116	0.0492481	3	0.029865	11	0	27.705	2.90621e-05
2	1	0	0	0	0	471.883	0.65331	0.653574	0.287758	3	0.031474	11	0	40.4074	0.000188071
2	1	0	1	0	0	484.382	0.684165	0.684455	0.676739	3	0.039794	11	0	52.906	0.000463197
2	1	0	0	0	0	497.084	0.620654	0.620962	0.0473983	3	0.0433049	11	0	65.6082	2.94325e-05
2	0	0	0	0	0	509.786	0.557142	0.557422	-0.0288356	3	0.0432544	11	0	8.0014	-1.60736e-05
2	0	0	1	0	0	522.489	0.493631	0.493934	-0.0369951	3	0.0428301	11	0	20.7036	-1.82731e-05
2	1	0	1	0	1	535.066	0.469276	0.469605	0.0307681	4	0.0425888	11	0	3.6006	1.44489e-05
2	1	0	1	0	1	547.768	0.532788	0.533085	0.0324026	4	0.0429815	11	0	16.303	1.72733e-05
2	1	0	0	0	1	560.47	0.596299	0.596598	0.0553585	4	0.0434706	11	0	29.0052	3.30268e-05
2	1	0	0	0	1	573.173	0.659811	0.660096	0.344835	4	0.0453703	11	0	41.7076	0.000227624
2	1	0	1	0	1	585.671	0.677664	0.677992	0.548719	4	0.0539183	11	0	54.2062	0.000372027
2	1	0	1	0	1	598.373	0.614152	0.614456	0.0267603	4	0.0566004	11	0	66.9085	1.6443e-05
2	0	0	0	0	1	611.076	0.550641	0.550937	-0.0288312	4	0.0564549	11	0	9.6018	-1.58842e-05
2	0	0	0	0	1	623.778	0.487129	0.487461	-0.0373226	4	0.0560204	11	0	22.3042	-1.81933e-05
2	1	0	1	0	0	636.355	0.475777	0.476077	0.0310156	5	0.0558669	11	0	4.9008	1.47658e-05
2	1	0	1	0	0	649.057	0.539289	0.539575	0.0313614	5	0.056259	11	0	17.6032	1.69218e-05
2	1	0	0	0	0	661.76	0.6028	0.603152	0.0614343	5	0.0567758	11	0	30.3054	3.70542e-05
2	1	0	0	0	0	674.462	0.666312	0.66659	0.410525	5	0.0590419	11	0	43.0078	0.000273652
2	1	0	1	0	0	686.961	0.671163	0.67148	0.439565	5	0.0676155	11	0	55.5064	0.000295159
2	1	0	1	0	0	699.663	0.607651	0.607949	0.0118231	5	0.0696319	11	0	68.2088	7.18782e-06
2	0	0	0	0	0	712.365	0.54414	0.544386	-0.029926	5	0.0694172	11	0	10.902	-1.62913e-05
2	0	0	0	0	0	725.068	0.480628	0.480959	-0.0387906	5	0.0689752	11	0	23.6044	-1.86567e-05
2	1	0	1	0	1	737.644	0.482279	0.482558	0.0295801	6	0.068911	11	0	6.2011	1.42741e-05
2	1	0	1	0	1	750.347	0.54579	0.546109	0.0330733	6	0.0693037	11	0	18.9034	1.80617e-05
2	1	0	1	0	1	763.049	0.609302	0.609628	0.0701181	6	0.069859	11	0	31.6058	4.2746e-05
2	1	0	0	0	1	775.751	0.672813	0.673099	0.492427	6	0.0725817	11	0	44.308	0.000331452
2	1	0	1	0	1	788.25	0.664662	0.664934	0.345878	6	0.0809675	11	0	56.8066	0.000229986
2	0	0	1	0	1	800.952	0.60115	0.601431	0.000861546	6	0.0824428	11	0	69.509	5.1816e-07
2	0	0	0	0	1	813.655	0.537639	0.537928	-0.032075	6	0.0821749	11	0	12.4022	-1.7254e-05
2	0	0	0	0	1	826.357	0.474127	0.474437	-0.0390223	6	0.0817253	11	0	25.1046	-1.85136e-05
2	1	0	0	0	0	838.934	0.48878	0.489101	0.0300723	7	0.0817511	11	0	7.5014	1.47084e-05
2	1	0	1	0	0	851.636	0.552291	0.552563	0.0328405	7	0.0821457	11	0	20.2036	1.81464e-05
2	1	0	1	0	0	864.339	0.615803	0.616104	0.0835897	7	0.0827526	11	0	32.906	5.14999e-05
2	1	0	0	0	0	877.041	0.679314	0.6796	0.585069	7	0.0860365	11	0	45.6082	0.000397612
2	1	0	1	0	0	889.539	0.65816	0.658468	0.266652	7	0.0940497	11	0	58.1069	0.000175582
2	0	0	1	0	0	902.242	0.594649	0.594997	-0.00731079	7	0.0951019	11	0	1.1002	-4.3499e-06
2	0	0	1	0	0	914.944	0.531137	0.531442	-0.0326996	7	0.0947955	11	0	13.8026	-1.7378e-05
2	0	0	0	0	0	927.646	0.467626	0.467937	-0.0382363	7	0.09434	11	0	26.5048	-1.78922e-05
2	1	0	0	0	1	940.223	0.495281	0.49557	0.0312203	8	0.0944557	11	0	8.8016	1.54719e-05
2	1	0	1	0	1	952.926	0.558792	0.559069	0.0330582	8	0.0948529	11	0	21.5038	1.84818e-05
2	1	0	1	0	1	965.628	0.622304	0.622608	0.097279	8	0.0955268	11	0	34.2062	6.05667e-05
2	1	0	1	0	1	978.33	0.685816	0.686132	0.688406	8	0.0994801	11	0	46.9086	0.000472337
2	1	0	0	0	1	990.829	0.651659	0.651935	0.203105	8	0.106895	11	0	59.4072	0.000132411
2	0	0	1	0	1	1003.53	0.588148	0.588515	-0.0135694	8	0.107608	11	0	2.5004	-7.98577e-06
[...]
2	0	0	0	0	1	1206.11	0.575145	0.575458	-0.02064	10	0.132222	11	0	5.201	-1.18775e-05
2	0	0	1	0	1	1218.81	0.511634	0.511948	-0.0344002	10	0.131843	11	0	17.9032	-1.76111e-05
2	1	0	1	0	0	1231.39	0.451273	0.45157	0.0127788	11	0.131382	11	0	0.000000000000000E+000	5.77051e-06
2	1	0	0	0	0	1244.09	0.514784	0.515085	0.0302332	11	0.131756	11	0	12.7022	1.55726e-05
2	1	0	0	0	0	1256.79	0.578296	0.578576	0.03953	11	0.132171	11	0	25.4046	2.28711e-05
2	1	0	1	0	0	1269.5	0.641807	0.642104	0.172957	11	0.133194	11	0	38.1069	0.000111056
2	1	0	1	0	0	1281.99	0.695667	0.695962	0.849971	11	0.139627	11	0	50.6056	0.000591547
2	1	0	0	0	0	1294.7	0.632156	0.632448	0.0764032	11	0.144301	11	0	63.3078	4.8321e-05
2	0	0	0	0	0	1307.4	0.568644	0.569002	-0.0246322	11	0.144394	11	0	6.5012	-1.40158e-05
2	0	0	1	0	0	1320.1	0.505133	0.505446	-0.0346677	11	0.144	11	0	19.2034	-1.75227e-05
2	1	0	1	0	1	1332.68	0.457774	0.458068	0.0285338	12	0.143617	11	0	1.3002	1.30704e-05
2	1	0	1	0	1	1345.38	0.521286	0.521566	0.0300061	12	0.143998	11	0	14.0026	1.56502e-05
2	1	0	0	0	1	1358.08	0.584797	0.58513	0.041542	12	0.144425	11	0	26.7048	2.43075e-05
2	1	0	0	0	1	1370.79	0.648309	0.648609	0.212892	12	0.145634	11	0	39.4072	0.000138084
2	1	0	1	0	1	1383.28	0.689166	0.689414	0.712762	12	0.152786	11	0	51.9058	0.000491388
2	1	0	0	0	1	1395.99	0.625655	0.625896	0.0524876	12	0.156501	11	0	64.608	3.28518e-05
2	0	0	0	0	1	1408.69	0.562143	0.562459	-0.0273236	12	0.156472	11	0	7.9014	-1.53684e-05
2	0	0	1	0	1	1421.39	0.498632	0.498962	-0.0347514	12	0.156065	11	0	20.6037	-1.73396e-05
2	1	0	1	0	0	1433.97	0.464275	0.464636	0.0296303	13	0.155765	11	0	2.6004	1.37673e-05
2	1	0	1	0	0	1446.67	0.527787	0.528115	0.0311495	13	0.156148	11	0	15.3028	1.64505e-05
2	1	0	0	0	0	1459.37	0.591298	0.59158	0.0459965	13	0.15659	11	0	28.005	2.72106e-05
2	1	0	0	0	0	1472.08	0.65481	0.655075	0.260864	13	0.158039	11	0	40.7074	0.000170885
2	1	0	1	0	0	1484.57	0.682665	0.682915	0.584639	13	0.165702	11	0	53.206	0.000399259
2	1	0	1	0	0	1497.28	0.619153	0.61943	0.0313592	13	0.168603	11	0	65.9084	1.94248e-05
2	0	0	0	0	0	1509.98	0.555642	0.555952	-0.0271881	13	0.168483	11	0	9.2016	-1.51153e-05
2	0	0	0	0	0	1522.68	0.49213	0.492442	-0.0361146	13	0.168066	11	0	21.904	-1.77844e-05
2	1	0	1	0	1	1535.26	0.470776	0.471081	0.029658	14	0.167852	11	0	3.9006	1.39713e-05
2	1	0	1	0	1	1547.96	0.534288	0.534598	0.0308196	14	0.168236	11	0	16.603	1.64761e-05
2	1	0	1	0	1	1560.66	0.597799	0.598101	0.0521385	14	0.168701	11	0	29.3053	3.11841e-05
2	1	0	0	0	1	1573.36	0.661311	0.661634	0.320501	14	0.170455	11	0	42.0076	0.000212055
2	1	0	1	0	1	1585.86	0.676164	0.676462	0.480278	14	0.178394	11	0	54.5062	0.00032489
2	1	0	1	0	1	1598.57	0.612652	0.612954	0.0159494	14	0.180616	11	0	67.2086	9.77621e-06
2	0	0	0	0	1	1611.27	0.549141	0.549471	-0.0304244	14	0.180427	11	0	10.5018	-1.67173e-05
2	0	0	0	0	1	1623.97	0.485629	0.485948	-0.0373705	14	0.180001	11	0	23.2042	-1.81601e-05
2	1	0	0	0	0	1636.55	0.477278	0.477594	0.0299386	15	0.179874	11	0	5.201	1.42985e-05
2	1	0	1	0	0	1649.25	0.540789	0.541107	0.0313662	15	0.180258	11	0	17.9032	1.69725e-05
2	1	0	1	0	0	1661.95	0.604301	0.604611	0.057405	15	0.180752	11	0	30.6056	3.47077e-05
2	1	0	0	0	0	1674.65	0.667812	0.668086	0.391588	15	0.182887	11	0	43.3078	0.000261614
2	1	0	1	0	0	1687.15	0.669663	0.670007	0.384479	15	0.190895	11	0	55.8064	0.000257603
2	1	0	1	0	0	1699.85	0.606151	0.606409	0.00420544	15	0.192558	11	0	68.5088	2.55021e-06
2	0	0	1	0	0	1712.56	0.542639	0.542953	-0.0300474	15	0.192315	11	0	11.8022	-1.63143e-05
2	0	0	0	0	0	1725.26	0.479128	0.479415	-0.0364085	15	0.191881	11	0	24.5044	-1.74548e-05
2	0	0	0	0	0	1731.08	0.449998	0.450393	-0.0466628	15	0.191657	11	0	30.325	-2.10166e-05