Folder: SI_for_publications/ACS_Catal_2026/Figures_Na_K/main_figures/data/EC/20240401_2-128_CV_cycles_alpha_gamma/alpha (part 4)

File: 20240328_2-128_007_alpha_Na-2_02_PEIS_C01.mpt
EC-Lab ASCII FILE
Nb header lines : 63

Potentio Electrochemical Impedance Spectroscopy

Run on channel : 1 (SN 66412)
User :
CE vs. WE compliance from -10 V to 10 V
Electrode connection : standard
Potential control : Ewe
Ewe ctrl range : min = -1.00 V, max = 1.00 V
Safety Limits :
	Do not start on E overload
Acquisition started on : 04/01/2024 20:30:54.900
Loaded Setting File :  C:\Users\NakamuraT\Documents\EC-Lab\Data\Yatsuzuka\20240328_2-129_UV-vis_K_Na_diff\20240328_2-129_001_preconditioning+CV_inK.mps
Saved on :
	File : 20240328_2-128_007_alpha_Na-2_02_PEIS_C01.mpr
	Directory : C:\Users\NakamuraT\Documents\EC-Lab\Data\Yatsuzuka\20240401_2-128_CV_cycles_alpha_gamma\
	Host : 192.109.209.100
Device : SP-150e (SN .003411)
Address : 192.109.209.236
EC-Lab for windows v11.50 (software)
Internet server v11.50 (firmware)
Command interpretor v11.50 (firmware)
Electrode material :
Initial state :
Electrolyte :
Comments :
Electrode surface area : 0.001 cm2
Characteristic mass : 0.001 g
Equivalent Weight : 0.000 g/eq.
Density : 0.000 g/cm3
Volume (V) : 0.001 cm3
Cycle Definition : Charge/Discharge alternance
Mode                Single sine
E (V)               0.4500
vs.                 Ref
tE (h:m:s)          0:00:0.0000
record              0
dI                  0.000
unit dI             mA
dt (s)              0.000
fi                  500.000
unit fi             kHz
ff                  1.000
unit ff             Hz
Nd                  6
Points              per decade
spacing             Logarithmic
Va (mV)             10.0
pw                  0.10
Na                  2
corr                0
E range min (V)     -1.000
E range max (V)     1.000
I Range             Auto
Bandwidth           5
nc cycles           0
goto Ns'            0
nr cycles           0
inc. cycle          0

freq/Hz	Re(Z)/Ohm	-Im(Z)/Ohm	|Z|/Ohm	Phase(Z)/deg	time/s	<Ewe>/V	<I>/mA	Cs/uF	Cp/uF	cycle number	I Range	|Ewe|/V	|I|/A	Ns	(Q-Qo)/mA.h	Re(Y)/Ohm-1	Im(Y)/Ohm-1	|Y|/Ohm-1	Phase(Y)/deg	Re(C)/nF	Im(C)/nF	|C|/nF	Phase(C)/deg	Re(M)	Im(M)	|M|	Phase(M)/deg	Re(Permittivity)	Im(Permittivity)	|Permittivity|	Phase(Permittivity)/deg	Re(Resistivity)/Ohm.cm	Im(Resistivity)/Ohm.cm	|Resistivity|/Ohm.cm	Phase(Resistivity)/deg	Re(Conductivity)/mS/cm	Im(Conductivity)/mS/cm	|Conductivity|/mS/cm	Phase(Conductivity)/deg	Tan(Delta)	Loss Angle(Delta)/deg	dq/mA.h
500019	30.9087	22.6769	38.3353	-36.2665	200.665	0.450438	0.0855754	0.0140362	0.00491158	1	11	0.00859437	0.00022419	0	4.19127e-05	0.0210322	0.0154308	0.0260856	36.2665	4.91158	6.6945	8.30301	-53.7335	0.0000000E+000	0.0000000E+000	0.0000000E+000	53.7335	0.0000000E+000	0.0000000E+000	0.0000000E+000	-53.7335	0.0000000E+000	0.0000000E+000	0.0000000E+000	-36.2665	0.0000000E+000	0.0000000E+000	0.0000000E+000	36.2665	1.363	53.7335	4.19127e-05
231063	27.2756	-3.14788	27.4567	6.58338	201.949	0.450264	-0.00548759	-0.218812	-0.00287616	1	10	0.00987468	0.000359646	0	4.61209e-05	0.0361808	-0.00417563	0.036421	-6.58338	-2.87616	24.9212	25.0866	-96.5834	0.0000000E+000	0.0000000E+000	0.0000000E+000	96.5834	0.0000000E+000	0.0000000E+000	0.0000000E+000	-96.5834	0.0000000E+000	0.0000000E+000	0.0000000E+000	6.58338	0.0000000E+000	0.0000000E+000	0.0000000E+000	-6.58338	8.66476	83.4166	5.24586e-07
106786	18.5491	-1.8834	18.6445	5.79771	202.793	0.450276	-0.0103688	-0.791336	-0.00807508	1	10	0.0105078	0.000563586	0	4.30732e-05	0.0533608	-0.00541804	0.0536351	-5.79771	-8.07508	79.5292	79.9381	-95.7977	0.0000000E+000	0.0000000E+000	0.0000000E+000	95.7977	0.0000000E+000	0.0000000E+000	0.0000000E+000	-95.7977	0.0000000E+000	0.0000000E+000	0.0000000E+000	5.79771	0.0000000E+000	0.0000000E+000	0.0000000E+000	-5.79771	9.84873	84.2023	-9.32324e-07
49352.4	17.4869	-0.855641	17.5078	2.80127	203.637	0.450279	-0.013289	-3.76895	-0.00900202	1	10	0.0104216	0.000595253	0	3.9327e-05	0.0570491	-0.00279144	0.0571174	-2.80127	-9.00201	183.976	184.196	-92.8013	0.0000000E+000	0.0000000E+000	0.0000000E+000	92.8013	0.0000000E+000	0.0000000E+000	0.0000000E+000	-92.8013	0.0000000E+000	0.0000000E+000	0.0000000E+000	2.80127	0.0000000E+000	0.0000000E+000	0.0000000E+000	-2.80127	20.4372	87.1987	-2.08971e-06
22806.6	17.2185	-0.388387	17.2229	1.29217	204.481	0.450283	-0.0132013	-17.9678	-0.00913723	1	10	0.0103916	0.000603359	0	3.69377e-05	0.0580476	-0.00130935	0.0580624	-1.29217	-9.13723	405.083	405.186	-91.2922	0.0000000E+000	0.0000000E+000	0.0000000E+000	91.2922	0.0000000E+000	0.0000000E+000	0.0000000E+000	-91.2922	0.0000000E+000	0.0000000E+000	0.0000000E+000	1.29217	0.0000000E+000	0.0000000E+000	0.0000000E+000	-1.29217	44.3333	88.7078	-1.74166e-06
10540.4	17.165	-0.175102	17.1659	0.584459	205.325	0.45028	-0.0154236	-86.2329	-0.00897266	1	10	0.0101858	0.000593374	0	3.35679e-05	0.058252	-0.000594234	0.058255	-0.584459	-8.97263	879.578	879.624	-90.5845	0.0000000E+000	0.0000000E+000	0.0000000E+000	90.5845	0.0000000E+000	0.0000000E+000	0.0000000E+000	-90.5845	0.0000000E+000	0.0000000E+000	0.0000000E+000	0.584459	0.0000000E+000	0.0000000E+000	0.0000000E+000	-0.584459	98.0287	89.4155	-1.48787e-06
4871.56	17.1675	-0.0797544	17.1677	0.266175	206.316	0.450293	-0.0159815	-409.635	-0.00884061	1	10	0.0104939	0.00061126	0	3.06998e-05	0.0582483	-0.000270602	0.0582489	-0.266175	-8.8406	1902.98	1903.01	-90.2662	0.0000000E+000	0.0000000E+000	0.0000000E+000	90.2662	0.0000000E+000	0.0000000E+000	0.0000000E+000	-90.2662	0.0000000E+000	0.0000000E+000	0.0000000E+000	0.266175	0.0000000E+000	0.0000000E+000	0.0000000E+000	-0.266175	215.255	89.7338	-1.51674e-06
2250.72	17.146	0.00138581	17.146	-0.00463087	207.247	0.450283	-0.0166588	51026.5	0.000333331	1	10	0.0107991	0.000629834	0	2.66116e-05	0.0583227	4.71386e-06	0.0583227	0.00463087	0.333344	4124.16	4124.16	-89.9954	0.0000000E+000	0.0000000E+000	0.0000000E+000	89.9954	0.0000000E+000	0.0000000E+000	0.0000000E+000	-89.9954	0.0000000E+000	0.0000000E+000	0.0000000E+000	-0.00463087	0.0000000E+000	0.0000000E+000	0.0000000E+000	0.00463087	12372.6	89.9954	-1.6152e-06
1040.33	17.1731	0.0365994	17.1732	-0.122108	208.177	0.450287	-0.0166663	4179.98	0.0189854	1	10	0.0108876	0.00063399	0	2.20953e-05	0.0582302	0.0001241	0.0582303	0.122108	18.9854	8908.32	8908.34	-89.8779	0.0000000E+000	0.0000000E+000	0.0000000E+000	89.8779	0.0000000E+000	0.0000000E+000	0.0000000E+000	-89.8779	0.0000000E+000	0.0000000E+000	0.0000000E+000	-0.122108	0.0000000E+000	0.0000000E+000	0.0000000E+000	0.122108	469.22	89.8779	-2.76602e-06
480.769	17.18	0.068553	17.1802	-0.228624	209.106	0.450294	-0.0179668	4829	0.0768873	1	10	0.010909	0.000634977	0	1.82494e-05	0.0582062	0.000232258	0.0582066	0.228624	76.8867	19268.7	19268.9	-89.7714	0.0000000E+000	0.0000000E+000	0.0000000E+000	89.7714	0.0000000E+000	0.0000000E+000	0.0000000E+000	-89.7714	0.0000000E+000	0.0000000E+000	0.0000000E+000	-0.228624	0.0000000E+000	0.0000000E+000	0.0000000E+000	0.228624	250.61	89.7714	-1.98242e-06
222.061	17.1791	0.160709	17.1799	-0.53598	210.031	0.45029	-0.0180284	4459.73	0.390254	1	10	0.0109154	0.000635362	0	1.36741e-05	0.058205	0.000544502	0.0582076	0.53598	390.254	41716.6	41718.4	-89.464	0.0000000E+000	0.0000000E+000	0.0000000E+000	89.464	0.0000000E+000	0.0000000E+000	0.0000000E+000	-89.464	0.0000000E+000	0.0000000E+000	0.0000000E+000	-0.53598	0.0000000E+000	0.0000000E+000	0.0000000E+000	0.53598	106.896	89.464	-2.4987e-06
102.667	17.1989	0.332954	17.2022	-1.10905	210.969	0.450292	-0.0182225	4655.89	1.74424	1	10	0.0109206	0.00063484	0	9.1015e-06	0.0581213	0.00112517	0.0581322	1.10905	1744.23	90099.7	90116.6	-88.891	0.0000000E+000	0.0000000E+000	0.0000000E+000	88.891	0.0000000E+000	0.0000000E+000	0.0000000E+000	-88.891	0.0000000E+000	0.0000000E+000	0.0000000E+000	-1.10905	0.0000000E+000	0.0000000E+000	0.0000000E+000	1.10905	51.6556	88.891	-2.47813e-06
47.4443	17.2475	0.679958	17.2609	-2.25764	211.88	0.450283	-0.0187729	4933.49	7.65582	1	10	0.0109265	0.000633022	0	3.94566e-06	0.0578895	0.00228221	0.0579345	2.25764	7655.82	194194	194345	-87.7424	0.0000000E+000	0.0000000E+000	0.0000000E+000	87.7424	0.0000000E+000	0.0000000E+000	0.0000000E+000	-87.7424	0.0000000E+000	0.0000000E+000	0.0000000E+000	-2.25764	0.0000000E+000	0.0000000E+000	0.0000000E+000	2.25764	25.3655	87.7424	-2.46595e-06
21.9144	17.2837	1.37748	17.3385	-4.55674	212.986	0.450273	-0.00110585	5272.35	33.2776	1	11	0.0109292	0.000630344	0	9.36759e-07	0.0574928	0.00458207	0.0576751	4.55674	33277.6	417545	418869	-85.4433	0.0000000E+000	0.0000000E+000	0.0000000E+000	85.4433	0.0000000E+000	0.0000000E+000	0.0000000E+000	-85.4433	0.0000000E+000	0.0000000E+000	0.0000000E+000	-4.55674	0.0000000E+000	0.0000000E+000	0.0000000E+000	4.55674	12.5473	85.4433	-1.59084e-06
10.1329	17.3703	2.91102	17.6125	-9.51358	213.913	0.450267	-0.00294642	5395.59	147.396	1	11	0.0109391	0.000621096	0	4.55282e-06	0.0559969	0.00938431	0.0567778	9.51358	147396	879525	891790	-80.4864	0.0000000E+000	0.0000000E+000	0.0000000E+000	80.4864	0.0000000E+000	0.0000000E+000	0.0000000E+000	-80.4864	0.0000000E+000	0.0000000E+000	0.0000000E+000	-9.51358	0.0000000E+000	0.0000000E+000	0.0000000E+000	9.51358	5.96707	80.4864	3.75818e-06
4.68375	17.5253	6.093	18.5543	-19.1709	214.763	0.450288	-0.00176128	5576.93	601.406	1	11	0.0109505	0.000590186	0	7.23389e-06	0.050907	0.0176987	0.0538959	19.1709	601406	1.72983e+06	1.83139e+06	-70.8291	0.0000000E+000	0.0000000E+000	0.0000000E+000	70.8291	0.0000000E+000	0.0000000E+000	0.0000000E+000	-70.8291	0.0000000E+000	0.0000000E+000	0.0000000E+000	-19.1709	0.0000000E+000	0.0000000E+000	0.0000000E+000	19.1709	2.87631	70.8291	7.4559e-06
2.16533	18.0627	12.5773	22.0102	-34.85	216.476	0.450299	-0.00107811	5843.98	1908.25	1	11	0.0109526	0.000497614	0	-6.83854e-06	0.037285	0.025962	0.0454334	34.85	1.90825e+06	2.7405e+06	3.33943e+06	-55.15	0.0000000E+000	0.0000000E+000	0.0000000E+000	55.15	0.0000000E+000	0.0000000E+000	0.0000000E+000	-55.15	0.0000000E+000	0.0000000E+000	0.0000000E+000	-34.85	0.0000000E+000	0.0000000E+000	0.0000000E+000	34.85	1.43613	55.15	-1.02239e-05
1.00006	18.7837	26.7409	32.6788	-54.9146	221.136	0.450297	0.00071051	5951.36	3985.08	1	12	0.0109574	0.000335306	0	8.06034e-06	0.0175893	0.0250406	0.0306009	54.9146	3.98508e+06	2.79925e+06	4.86997e+06	-35.0854	0.0000000E+000	0.0000000E+000	0.0000000E+000	35.0854	0.0000000E+000	0.0000000E+000	0.0000000E+000	-35.0854	0.0000000E+000	0.0000000E+000	0.0000000E+000	-54.9146	0.0000000E+000	0.0000000E+000	0.0000000E+000	54.9146	0.702432	35.0854	1.40696e-05

File: 20240328_2-128_007_alpha_Na-2_03_CVA_C01.mpt
EC-Lab ASCII FILE
Nb header lines : 66

Cyclic Voltammetry Advanced

Run on channel : 1 (SN 66412)
User :
CE vs. WE compliance from -10 V to 10 V
Electrode connection : standard
Potential control : Ewe
Ewe ctrl range : min = -1.00 V, max = 1.00 V
Safety Limits :
	Do not start on E overload
Acquisition started on : 04/01/2024 20:30:54.900
Loaded Setting File :  C:\Users\NakamuraT\Documents\EC-Lab\Data\Yatsuzuka\20240328_2-129_UV-vis_K_Na_diff\20240328_2-129_001_preconditioning+CV_inK.mps
Saved on :
	File : 20240328_2-128_007_alpha_Na-2_03_CVA_C01.mpr
	Directory : C:\Users\NakamuraT\Documents\EC-Lab\Data\Yatsuzuka\20240401_2-128_CV_cycles_alpha_gamma\
	Host : 192.109.209.100
Device : SP-150e (SN .003411)
Address : 192.109.209.236
EC-Lab for windows v11.50 (software)
Internet server v11.50 (firmware)
Command interpretor v11.50 (firmware)
Electrode material :
Initial state :
Electrolyte :
Comments :
Electrode surface area : 0.001 cm2
Characteristic mass : 0.001 g
Equivalent Weight : 0.000 g/eq.
Density : 0.000 g/cm3
Volume (V) : 0.001 cm3
Cycle Definition : Charge/Discharge alternance
Ei (V)              0.450
vs.                 Ref
ti (h:m:s)          0:00:10.0000
dti (s)             0.0000
dE/dt               5.000
dE/dt unit          mV/s
E1 (V)              0.700
vs.                 Ref
t1 (h:m:s)          0:00:0.0000
dt1 (s)             0.1000
Step percent        50
N                   10
E range min (V)     -1.000
E range max (V)     1.000
I Range             10 mA
I Range min         Unset
I Range max         Unset
I Range init        Unset
Bandwidth           5
E2 (V)              0.450
vs.                 Ref
t2 (h:m:s)          0:00:0.0000
dt2 (s)             0.1000
nc cycles           14
nr                  1
Reverse Scan        0
Ef (V)              0.000
vs.                 Eoc
tf (h:m:s)          0:00:0.0000
dtf (s)             0.1000

mode	ox/red	error	control changes	Ns changes	counter inc.	time/s	control/V	Ewe/V	<I>/mA	cycle number	(Q-Qo)/C	I Range	Ns	step time/s	P/W
2	0	0	0	0	0	231.256	0.449935	0.450036	-0.0040193	1	0.0000000E+000	11	0	0.000000000000000E+000	-1.80883e-06
2	1	0	1	0	0	243.913	0.51322	0.513481	0.0322346	1	0.000397657	11	0	12.6021	1.65519e-05
2	1	0	0	0	0	256.616	0.576732	0.577024	0.0423031	1	0.000842284	11	0	25.3044	2.44099e-05
2	1	0	1	0	0	269.318	0.640243	0.640585	0.172129	1	0.00188622	11	0	38.0066	0.000110263
2	1	0	0	0	0	281.829	0.697153	0.697439	0.940811	1	0.00846162	11	0	50.518	0.000656159
2	1	0	1	0	0	294.532	0.633641	0.633917	0.0832032	1	0.0135631	11	0	63.2203	5.2744e-05
2	0	0	1	0	0	307.234	0.570131	0.570427	-0.0231705	1	0.0136869	11	0	6.3012	-1.32171e-05
2	0	0	0	0	0	319.936	0.50662	0.506907	-0.0342987	1	0.0133019	11	0	19.0034	-1.73863e-05
2	1	0	0	0	1	332.51	0.456261	0.456543	0.0253867	2	0.01291	11	0	1.0002	1.15901e-05
2	1	0	1	0	1	345.213	0.519772	0.520109	0.0294787	2	0.0132779	11	0	13.7024	1.53321e-05
2	1	0	0	0	1	357.915	0.583283	0.583583	0.039936	2	0.0136937	11	0	26.4046	2.33059e-05
2	1	0	1	0	1	370.617	0.646794	0.647096	0.202224	2	0.0148462	11	0	39.1068	0.000130858
2	1	0	1	0	1	383.119	0.690652	0.690956	0.772306	2	0.0221055	11	0	51.6084	0.00053363
2	1	0	0	0	1	395.821	0.627141	0.627418	0.0532798	2	0.0260701	11	0	64.3106	3.34287e-05
2	0	0	1	0	1	408.523	0.563629	0.563952	-0.0252786	2	0.0260587	11	0	7.7014	-1.42559e-05
2	0	0	0	0	1	421.225	0.500118	0.500377	-0.0355796	2	0.0256607	11	0	20.4036	-1.78032e-05
2	1	0	0	0	0	433.799	0.462762	0.463033	0.0283696	3	0.0253491	11	0	2.3004	1.31361e-05
2	1	0	1	0	0	446.502	0.526273	0.526517	0.0288344	3	0.0257181	11	0	15.0026	1.51818e-05
2	1	0	0	0	0	459.204	0.589784	0.590103	0.0443773	3	0.0261456	11	0	27.7048	2.61872e-05
2	1	0	1	0	0	471.906	0.653295	0.6536	0.247138	3	0.0275094	11	0	40.407	0.00016153
2	1	0	1	0	0	484.408	0.68415	0.684468	0.628028	3	0.0352722	11	0	52.9086	0.000429865
2	1	0	0	0	0	497.11	0.620639	0.620863	0.0335156	3	0.0383258	11	0	65.6108	2.08086e-05
2	0	0	1	0	0	509.812	0.557128	0.557407	-0.0269553	3	0.0382162	11	0	9.0016	-1.50251e-05
2	0	0	0	0	0	522.514	0.493617	0.493934	-0.035044	3	0.0378079	11	0	21.7038	-1.73094e-05
2	1	0	0	0	1	535.088	0.469263	0.469573	0.0287656	4	0.037579	11	0	3.6006	1.35076e-05
2	1	0	1	0	1	547.791	0.532774	0.53308	0.0291176	4	0.037949	11	0	16.3028	1.5522e-05
2	1	0	0	0	1	560.493	0.596285	0.596551	0.0477288	4	0.0383952	11	0	29.005	2.84727e-05
2	1	0	1	0	1	573.195	0.659796	0.660002	0.30439	4	0.0400339	11	0	41.7072	0.000200898
2	1	0	1	0	1	585.697	0.677649	0.677948	0.504891	4	0.048098	11	0	54.2088	0.00034229
2	1	0	0	0	1	598.399	0.614138	0.614457	0.0179473	4	0.0504069	11	0	66.911	1.10278e-05
2	0	0	1	0	1	611.101	0.550627	0.551006	-0.0294112	4	0.0502264	11	0	10.5018	-1.62057e-05
2	0	0	0	0	1	623.803	0.487116	0.487426	-0.0363081	4	0.0498104	11	0	23.204	-1.76975e-05
2	1	0	0	0	0	636.377	0.475764	0.476085	0.0293827	5	0.0496652	11	0	4.9008	1.39887e-05
2	1	0	1	0	0	649.08	0.539275	0.539575	0.0307931	5	0.0500372	11	0	17.603	1.66152e-05
2	1	0	0	0	0	661.782	0.602786	0.603167	0.0540464	5	0.0505082	11	0	30.3052	3.2599e-05
2	1	0	1	0	0	674.484	0.666297	0.666562	0.373047	5	0.052498	11	0	43.0074	0.000248659
2	1	0	1	0	0	686.986	0.671148	0.671447	0.398656	5	0.0606356	11	0	55.509	0.000267677
2	1	0	0	0	0	699.688	0.607637	0.608006	0.00470842	5	0.0623494	11	0	68.2112	2.86275e-06
2	0	0	1	0	0	712.39	0.544126	0.544438	-0.0289929	5	0.062115	11	0	11.802	-1.57848e-05
2	0	0	0	0	0	725.092	0.480615	0.480912	-0.0356548	5	0.061691	11	0	24.5042	-1.71468e-05
2	1	0	0	0	1	737.666	0.482265	0.482552	0.0288727	6	0.0616308	11	0	6.201	1.39326e-05
2	1	0	1	0	1	750.369	0.545776	0.546084	0.0300658	6	0.0620029	11	0	18.9032	1.64184e-05
2	1	0	0	0	1	763.071	0.609287	0.609581	0.0617674	6	0.0625072	11	0	31.6054	3.76522e-05
2	1	0	1	0	1	775.773	0.672798	0.673146	0.457485	6	0.0649396	11	0	44.3076	0.000307954
2	1	0	1	0	1	788.275	0.664647	0.66496	0.309704	6	0.0729421	11	0	56.8092	0.000205941
2	1	0	0	0	1	800.977	0.601136	0.601438	-0.00362633	6	0.0741771	11	0	0.5	-2.18101e-06
2	0	0	1	0	1	813.679	0.537625	0.537981	-0.0313625	6	0.0739006	11	0	13.2022	-1.68724e-05
2	0	0	0	0	1	826.381	0.474114	0.474382	-0.0370352	6	0.0734713	11	0	25.9044	-1.75689e-05
2	1	0	0	0	0	838.955	0.488766	0.489016	0.0297792	7	0.0734961	11	0	7.5012	1.45625e-05
2	1	0	1	0	0	851.658	0.552277	0.552616	0.0312847	7	0.07387	11	0	20.2034	1.72884e-05
2	1	0	0	0	0	864.36	0.615789	0.616109	0.0731589	7	0.0744182	11	0	32.9056	4.50739e-05
2	1	0	1	0	0	877.062	0.6793	0.679612	0.553415	7	0.0773927	11	0	45.6078	0.000376107
2	1	0	1	0	0	889.564	0.658146	0.658456	0.235917	7	0.0850348	11	0	58.1094	0.000155341
2	0	0	0	0	0	902.266	0.594635	0.594954	-0.0101843	7	0.0858924	11	0	1.8002	-6.05921e-06
2	0	0	1	0	0	914.968	0.531124	0.531488	-0.0323077	7	0.0855842	11	0	14.5024	-1.71712e-05
2	0	0	0	0	0	927.67	0.467613	0.467866	-0.0362795	7	0.0851476	11	0	27.2046	-1.6974e-05
2	1	0	0	0	1	940.244	0.495268	0.495554	0.0289308	8	0.0852578	11	0	8.8014	1.43367e-05
2	1	0	1	0	1	952.947	0.558779	0.558996	0.0312159	8	0.0856337	11	0	21.5037	1.74496e-05
2	1	0	1	0	1	965.649	0.622289	0.622571	0.0862452	8	0.0862403	11	0	34.2059	5.36938e-05
2	1	0	0	0	1	978.351	0.685801	0.686175	0.666235	8	0.0898815	11	0	46.9082	0.000457154
2	1	0	1	0	1	990.853	0.651645	0.651924	0.176359	8	0.0969737	11	0	59.4096	0.000114973
2	0	0	0	0	1	1003.55	0.588134	0.588432	-0.0154806	8	0.0975411	11	0	3.1004	-9.10925e-06
[...]
2	0	0	1	0	1	1206.13	0.575131	0.575481	-0.0211792	10	0.120626	11	0	5.801	-1.21882e-05
2	0	0	0	0	1	1218.84	0.51162	0.511905	-0.0325018	10	0.120258	11	0	18.5032	-1.66378e-05
2	1	0	0	0	0	1231.41	0.45126	0.451625	0.0151463	11	0.119817	11	0	0.000000000000000E+000	6.84046e-06
2	1	0	1	0	0	1244.11	0.514771	0.515186	0.0298167	11	0.120174	11	0	12.7022	1.53611e-05
2	1	0	0	0	0	1256.81	0.578282	0.578603	0.0366252	11	0.120566	11	0	25.4044	2.11914e-05
2	1	0	1	0	0	1269.52	0.641793	0.642144	0.15573	11	0.121483	11	0	38.1066	0.000100001
2	1	0	1	0	0	1282.02	0.695652	0.695914	0.840066	11	0.127669	11	0	50.6082	0.000584614
2	1	0	0	0	0	1294.72	0.632141	0.632456	0.0625742	11	0.132049	11	0	63.3104	3.95754e-05
2	0	0	1	0	0	1307.42	0.56863	0.568909	-0.0246228	11	0.132082	11	0	7.1012	-1.40081e-05
2	0	0	0	0	0	1320.12	0.505119	0.505433	-0.0345785	11	0.131699	11	0	19.8034	-1.74771e-05
2	1	0	0	0	1	1332.7	0.457761	0.458061	0.0256707	12	0.131334	11	0	1.3002	1.17587e-05
2	1	0	1	0	1	1345.4	0.521272	0.521495	0.0292533	12	0.131698	11	0	14.0024	1.52554e-05
2	1	0	0	0	1	1358.1	0.584783	0.58503	0.0397054	12	0.132102	11	0	26.7046	2.32289e-05
2	1	0	1	0	1	1370.8	0.648294	0.648623	0.19346	12	0.133189	11	0	39.4068	0.000125483
2	1	0	1	0	1	1383.31	0.689151	0.689423	0.692832	12	0.14012	11	0	51.9084	0.000477654
2	1	0	0	0	1	1396.01	0.62564	0.625944	0.0413592	12	0.143551	11	0	64.6106	2.58886e-05
2	0	0	1	0	1	1408.71	0.562129	0.562415	-0.0259838	12	0.143482	11	0	8.4014	-1.46137e-05
2	0	0	0	0	1	1421.41	0.498618	0.498919	-0.0349378	12	0.143091	11	0	21.1036	-1.74312e-05
2	1	0	0	0	0	1433.99	0.464262	0.464554	0.0280261	13	0.142805	11	0	2.6004	1.30196e-05
2	1	0	1	0	0	1446.69	0.527773	0.528066	0.0283731	13	0.143172	11	0	15.3026	1.49829e-05
2	1	0	0	0	0	1459.39	0.591284	0.591637	0.042239	13	0.143591	11	0	28.0048	2.49902e-05
2	1	0	1	0	0	1472.09	0.654795	0.655054	0.24027	13	0.144901	11	0	40.707	0.00015739
2	1	0	1	0	0	1484.6	0.68265	0.682915	0.565212	13	0.152342	11	0	53.2086	0.000385992
2	1	0	0	0	0	1497.3	0.619139	0.619426	0.0230787	13	0.154984	11	0	65.9108	1.42955e-05
2	0	0	1	0	0	1510	0.555628	0.555955	-0.0274981	13	0.154839	11	0	9.8017	-1.52877e-05
2	0	0	0	0	0	1522.7	0.492117	0.492378	-0.035203	13	0.154437	11	0	22.5039	-1.73332e-05
2	1	0	0	0	1	1535.28	0.470763	0.47105	0.0284628	14	0.154233	11	0	3.9006	1.34074e-05
2	1	0	1	0	1	1547.98	0.534274	0.534604	0.0300559	14	0.154601	11	0	16.6028	1.6068e-05
2	1	0	0	0	1	1560.68	0.597785	0.598079	0.0470775	14	0.155038	11	0	29.305	2.81561e-05
2	1	0	1	0	1	1573.38	0.661296	0.661561	0.297739	14	0.156631	11	0	42.0072	0.000196972
2	1	0	1	0	1	1585.88	0.676149	0.676404	0.453393	14	0.164364	11	0	54.5088	0.000306677
2	1	0	0	0	1	1598.59	0.612638	0.612951	0.0114895	14	0.166363	11	0	67.211	7.04249e-06
2	0	0	1	0	1	1611.29	0.549127	0.54939	-0.0275977	14	0.166158	11	0	11.1019	-1.51619e-05
2	0	0	0	0	1	1623.99	0.485616	0.485921	-0.0348048	14	0.165749	11	0	23.8041	-1.69124e-05
2	1	0	0	0	0	1636.57	0.477264	0.477578	0.0288188	15	0.165629	11	0	5.2008	1.37632e-05
2	1	0	1	0	0	1649.27	0.540775	0.541048	0.0291196	15	0.165998	11	0	17.903	1.57551e-05
2	1	0	0	0	0	1661.97	0.604287	0.604711	0.0536045	15	0.166461	11	0	30.6052	3.24152e-05
2	1	0	1	0	0	1674.67	0.667798	0.66808	0.371505	15	0.168416	11	0	43.3075	0.000248195
2	1	0	1	0	0	1687.17	0.669648	0.669987	0.357565	15	0.176216	11	0	55.809	0.000239564
2	1	0	0	0	0	1699.88	0.606137	0.606425	0.00165117	15	0.177686	11	0	68.5112	1.00131e-06
2	0	0	1	0	0	1712.58	0.542626	0.542969	-0.0290688	15	0.177436	11	0	12.4021	-1.57834e-05
2	0	0	0	0	0	1725.28	0.479115	0.479463	-0.035036	15	0.177019	11	0	25.1043	-1.67985e-05
2	0	0	1	0	0	1731.1	0.449985	0.450437	-0.0334564	15	0.176804	11	0	30.9223	-1.507e-05