Folder: SI_for_publications/ACS_Catal_2026/Figures_Na_K/main_figures/data/EC/20240401_2-128_CV_cycles_alpha_gamma/gamma (part 4)

File: 20240328_2-128_008_gamma_Na-2_02_PEIS_C02.mpt
EC-Lab ASCII FILE
Nb header lines : 63

Potentio Electrochemical Impedance Spectroscopy

Run on channel : 2 (SN 66414)
User :
CE vs. WE compliance from -10 V to 10 V
Electrode connection : standard
Potential control : Ewe
Ewe ctrl range : min = -1.00 V, max = 1.00 V
Safety Limits :
	Do not start on E overload
Acquisition started on : 04/01/2024 20:34:39.484
Loaded Setting File :  C:\Users\NakamuraT\Documents\EC-Lab\Data\Yatsuzuka\20240401_2-128_CV_cycles_alpha_gamma\20240328_2-128_001_alpha_K-1.mps
Saved on :
	File : 20240328_2-128_008_gamma_Na-2_02_PEIS_C02.mpr
	Directory : C:\Users\NakamuraT\Documents\EC-Lab\Data\Yatsuzuka\20240401_2-128_CV_cycles_alpha_gamma\
	Host : 192.109.209.100
Device : SP-150e (SN .003411)
Address : 192.109.209.236
EC-Lab for windows v11.50 (software)
Internet server v11.50 (firmware)
Command interpretor v11.50 (firmware)
Electrode material :
Initial state :
Electrolyte :
Comments :
Electrode surface area : 0.001 cm2
Characteristic mass : 0.001 g
Equivalent Weight : 0.000 g/eq.
Density : 0.000 g/cm3
Volume (V) : 0.001 cm3
Cycle Definition : Charge/Discharge alternance
Mode                Single sine
E (V)               0.4500
vs.                 Ref
tE (h:m:s)          0:00:0.0000
record              0
dI                  0.000
unit dI             mA
dt (s)              0.000
fi                  500.000
unit fi             kHz
ff                  1.000
unit ff             Hz
Nd                  6
Points              per decade
spacing             Logarithmic
Va (mV)             10.0
pw                  0.10
Na                  2
corr                0
E range min (V)     -1.000
E range max (V)     1.000
I Range             Auto
Bandwidth           5
nc cycles           0
goto Ns'            0
nr cycles           0
inc. cycle          0

freq/Hz	Re(Z)/Ohm	-Im(Z)/Ohm	|Z|/Ohm	Phase(Z)/deg	time/s	<Ewe>/V	<I>/mA	Cs/uF	Cp/uF	cycle number	I Range	|Ewe|/V	|I|/A	Ns	(Q-Qo)/mA.h	Re(Y)/Ohm-1	Im(Y)/Ohm-1	|Y|/Ohm-1	Phase(Y)/deg	Re(C)/nF	Im(C)/nF	|C|/nF	Phase(C)/deg	Re(M)	Im(M)	|M|	Phase(M)/deg	Re(Permittivity)	Im(Permittivity)	|Permittivity|	Phase(Permittivity)/deg	Re(Resistivity)/Ohm.cm	Im(Resistivity)/Ohm.cm	|Resistivity|/Ohm.cm	Phase(Resistivity)/deg	Re(Conductivity)/mS/cm	Im(Conductivity)/mS/cm	|Conductivity|/mS/cm	Phase(Conductivity)/deg	Tan(Delta)	Loss Angle(Delta)/deg	dq/mA.h
500019	45.7023	9.7948	46.7401	-12.0965	201.393	0.450481	-0.000847181	0.0324967	0.00142709	1	11	0.0106307	0.000227443	0	2.39179e-07	0.0209198	0.00448349	0.0213949	12.0965	1.42708	6.65875	6.80995	-77.9035	0.0000000E+000	0.0000000E+000	0.0000000E+000	77.9035	0.0000000E+000	0.0000000E+000	0.0000000E+000	-77.9035	0.0000000E+000	0.0000000E+000	0.0000000E+000	-12.0965	0.0000000E+000	0.0000000E+000	0.0000000E+000	12.0965	4.66598	77.9035	2.39179e-07
231063	29.2464	-0.848331	29.2587	1.66148	202.676	0.450315	-0.00393922	-0.811942	-0.00068257	1	10	0.00993373	0.000339514	0	-3.92155e-07	0.0341636	-0.000990961	0.0341779	-1.66148	-0.682569	23.5317	23.5416	-91.6615	0.0000000E+000	0.0000000E+000	0.0000000E+000	91.6615	0.0000000E+000	0.0000000E+000	0.0000000E+000	-91.6615	0.0000000E+000	0.0000000E+000	0.0000000E+000	1.66148	0.0000000E+000	0.0000000E+000	0.0000000E+000	-1.66148	34.4752	88.3385	-8.87803e-07
106786	26.2259	-0.144663	26.2263	0.316041	203.52	0.450315	-0.00422109	-10.3026	-0.000313463	1	10	0.0106861	0.000407457	0	-1.09962e-06	0.038129	-0.00021032	0.0381296	-0.316041	-0.313462	56.8278	56.8286	-90.316	0.0000000E+000	0.0000000E+000	0.0000000E+000	90.316	0.0000000E+000	0.0000000E+000	0.0000000E+000	-90.316	0.0000000E+000	0.0000000E+000	0.0000000E+000	0.316041	0.0000000E+000	0.0000000E+000	0.0000000E+000	-0.316041	181.29	89.684	4.50537e-07
49352.4	25.7725	0.00878935	25.7725	-0.0195399	204.364	0.450325	-0.0045459	366.907	4.26731e-05	1	10	0.0103715	0.000402425	0	-1.95291e-06	0.038801	1.32325e-05	0.038801	0.0195399	0.0426709	125.128	125.128	-89.9805	0.0000000E+000	0.0000000E+000	0.0000000E+000	89.9805	0.0000000E+000	0.0000000E+000	0.0000000E+000	-89.9805	0.0000000E+000	0.0000000E+000	0.0000000E+000	-0.0195399	0.0000000E+000	0.0000000E+000	0.0000000E+000	0.0195399	2932.25	89.9805	-8.41545e-07
22806.6	25.677	0.0571658	25.6771	-0.12756	205.209	0.450329	-0.00411656	122.074	0.00060507	1	10	0.0102338	0.000398558	0	-3.63369e-06	0.0389452	8.67053e-05	0.0389453	0.12756	0.605087	271.778	271.778	-89.8724	0.0000000E+000	0.0000000E+000	0.0000000E+000	89.8724	0.0000000E+000	0.0000000E+000	0.0000000E+000	-89.8724	0.0000000E+000	0.0000000E+000	0.0000000E+000	-0.12756	0.0000000E+000	0.0000000E+000	0.0000000E+000	0.12756	449.167	89.8724	-6.34423e-07
10540.4	25.6383	0.151453	25.6387	-0.33846	205.918	0.450322	-0.0045403	99.6977	0.00347896	1	10	0.0107241	0.000418278	0	-4.159e-06	0.0390028	0.000230401	0.0390035	0.33846	3.47899	588.924	588.935	-89.6615	0.0000000E+000	0.0000000E+000	0.0000000E+000	89.6615	0.0000000E+000	0.0000000E+000	0.0000000E+000	-89.6615	0.0000000E+000	0.0000000E+000	0.0000000E+000	-0.33846	0.0000000E+000	0.0000000E+000	0.0000000E+000	0.33846	169.282	89.6615	-1.56675e-07
4871.56	25.6726	0.19083	25.6733	-0.425884	206.909	0.450356	-0.00493417	171.201	0.00945877	1	10	0.0101825	0.00039662	0	-5.11664e-06	0.0389499	0.000289523	0.038951	0.425884	9.4587	1272.5	1272.54	-89.5741	0.0000000E+000	0.0000000E+000	0.0000000E+000	89.5741	0.0000000E+000	0.0000000E+000	0.0000000E+000	-89.5741	0.0000000E+000	0.0000000E+000	0.0000000E+000	-0.425884	0.0000000E+000	0.0000000E+000	0.0000000E+000	0.425884	134.531	89.5741	-3.84306e-07
2250.72	25.6776	0.455188	25.6817	-1.01558	207.839	0.450346	-0.00480164	155.349	0.0488026	1	10	0.0102676	0.000399803	0	-6.17532e-06	0.0389322	0.000690151	0.0389383	1.01558	48.8027	2753.01	2753.44	-88.9844	0.0000000E+000	0.0000000E+000	0.0000000E+000	88.9844	0.0000000E+000	0.0000000E+000	0.0000000E+000	-88.9844	0.0000000E+000	0.0000000E+000	0.0000000E+000	-1.01558	0.0000000E+000	0.0000000E+000	0.0000000E+000	1.01558	56.4111	88.9844	-5.09929e-07
1040.33	25.7877	0.890011	25.8031	-1.97666	208.769	0.450351	-0.00538031	171.891	0.204503	1	10	0.0102951	0.000398987	0	-7.76718e-06	0.038732	0.00133676	0.0387551	1.97666	204.503	5925.41	5928.94	-88.0233	0.0000000E+000	0.0000000E+000	0.0000000E+000	88.0233	0.0000000E+000	0.0000000E+000	0.0000000E+000	-88.0233	0.0000000E+000	0.0000000E+000	0.0000000E+000	-1.97666	0.0000000E+000	0.0000000E+000	0.0000000E+000	1.97666	28.9746	88.0233	-8.67581e-07
480.769	25.8542	1.7933	25.9163	-3.96779	209.699	0.450345	-0.00625953	184.6	0.883872	1	10	0.0102907	0.000397076	0	-9.30741e-06	0.0384932	0.00266997	0.0385857	3.96779	883.873	12742.9	12773.5	-86.0322	0.0000000E+000	0.0000000E+000	0.0000000E+000	86.0322	0.0000000E+000	0.0000000E+000	0.0000000E+000	-86.0322	0.0000000E+000	0.0000000E+000	0.0000000E+000	-3.96779	0.0000000E+000	0.0000000E+000	0.0000000E+000	3.96779	14.4171	86.0322	-7.57e-07
222.061	26.094	3.64647	26.3475	-7.95521	210.875	0.450328	-0.000893617	196.551	3.7648	1	11	0.0103127	0.000391412	0	-1.02419e-05	0.037589	0.00525283	0.0379542	7.95521	3764.8	26940.7	27202.5	-82.0448	0.0000000E+000	0.0000000E+000	0.0000000E+000	82.0448	0.0000000E+000	0.0000000E+000	0.0000000E+000	-82.0448	0.0000000E+000	0.0000000E+000	0.0000000E+000	-7.95521	0.0000000E+000	0.0000000E+000	0.0000000E+000	7.95521	7.15595	82.0448	4.81167e-08
102.667	26.4541	7.43892	27.4801	-15.7061	211.812	0.450334	-0.000876645	208.39	15.2708	1	11	0.0103149	0.000375358	0	-1.08294e-05	0.0350313	0.00985084	0.03639	15.7061	15270.8	54305.5	56411.7	-74.2939	0.0000000E+000	0.0000000E+000	0.0000000E+000	74.2939	0.0000000E+000	0.0000000E+000	0.0000000E+000	-74.2939	0.0000000E+000	0.0000000E+000	0.0000000E+000	-15.7061	0.0000000E+000	0.0000000E+000	0.0000000E+000	15.7061	3.55617	74.2939	-3.10112e-07
47.4443	27.1022	15.3761	31.1602	-29.5678	212.723	0.450325	-0.00107901	218.168	53.123	1	11	0.0103093	0.000330848	0	-1.13016e-05	0.027913	0.015836	0.0320923	29.5678	53123	93635.8	107656	-60.4322	0.0000000E+000	0.0000000E+000	0.0000000E+000	60.4322	0.0000000E+000	0.0000000E+000	0.0000000E+000	-60.4322	0.0000000E+000	0.0000000E+000	0.0000000E+000	-29.5678	0.0000000E+000	0.0000000E+000	0.0000000E+000	29.5678	1.76262	60.4322	-3.43937e-07
21.9144	28.3681	32.0108	42.7719	-48.4525	213.591	0.450319	-0.00132502	226.878	127.077	1	11	0.0103101	0.000241049	0	-1.21899e-05	0.0155064	0.0174976	0.0233798	48.4525	127077	112616	169797	-41.5475	0.0000000E+000	0.0000000E+000	0.0000000E+000	41.5475	0.0000000E+000	0.0000000E+000	0.0000000E+000	-41.5475	0.0000000E+000	0.0000000E+000	0.0000000E+000	-48.4525	0.0000000E+000	0.0000000E+000	0.0000000E+000	48.4525	0.886203	41.5475	-7.42429e-07
10.1329	30.3992	67.1787	73.7366	-65.6527	214.519	0.450333	-0.000867327	233.805	194.066	1	11	0.0103014	0.000139706	0	-1.14377e-05	0.00559108	0.0123556	0.0135618	65.6527	194066	87817.4	213011	-24.3473	0.0000000E+000	0.0000000E+000	0.0000000E+000	24.3473	0.0000000E+000	0.0000000E+000	0.0000000E+000	-24.3473	0.0000000E+000	0.0000000E+000	0.0000000E+000	-65.6527	0.0000000E+000	0.0000000E+000	0.0000000E+000	65.6527	0.452512	24.3473	8.15524e-07
4.68375	36.0419	139.572	144.15	-75.5207	215.569	0.450348	6.98588e-05	243.46	228.24	1	12	0.010308	7.1509e-05	0	-1.24632e-05	0.00173451	0.00671686	0.0069372	75.5207	228240	58939	235728	-14.4793	0.0000000E+000	0.0000000E+000	0.0000000E+000	14.4793	0.0000000E+000	0.0000000E+000	0.0000000E+000	-14.4793	0.0000000E+000	0.0000000E+000	0.0000000E+000	-75.5207	0.0000000E+000	0.0000000E+000	0.0000000E+000	75.5207	0.258232	14.4793	-1.00504e-06
2.16533	46.0159	290.861	294.479	-81.01	217.283	0.450348	0.000118505	252.703	246.533	1	12	0.0102991	3.49741e-05	0	-1.16442e-05	0.000530641	0.00335412	0.00339583	81.01	246533	39002.9	249599	-8.99002	0.0000000E+000	0.0000000E+000	0.0000000E+000	8.99002	0.0000000E+000	0.0000000E+000	0.0000000E+000	-8.99002	0.0000000E+000	0.0000000E+000	0.0000000E+000	-81.01	0.0000000E+000	0.0000000E+000	0.0000000E+000	81.01	0.158206	8.99002	7.91948e-07
1.00006	67.5957	611.94	615.662	-83.6966	221.623	0.450349	0.000229271	260.066	256.931	1	13	0.0103015	1.67323e-05	0	-1.1667e-05	0.000178334	0.00161445	0.00162427	83.6966	256931	28380.9	258494	-6.30341	0.0000000E+000	0.0000000E+000	0.0000000E+000	6.30341	0.0000000E+000	0.0000000E+000	0.0000000E+000	-6.30341	0.0000000E+000	0.0000000E+000	0.0000000E+000	-83.6966	0.0000000E+000	0.0000000E+000	0.0000000E+000	83.6966	0.110461	6.30341	-3.78609e-07

File: 20240328_2-128_008_gamma_Na-2_03_CVA_C02.mpt
EC-Lab ASCII FILE
Nb header lines : 66

Cyclic Voltammetry Advanced

Run on channel : 2 (SN 66414)
User :
CE vs. WE compliance from -10 V to 10 V
Electrode connection : standard
Potential control : Ewe
Ewe ctrl range : min = -1.00 V, max = 1.00 V
Safety Limits :
	Do not start on E overload
Acquisition started on : 04/01/2024 20:34:39.484
Loaded Setting File :  C:\Users\NakamuraT\Documents\EC-Lab\Data\Yatsuzuka\20240401_2-128_CV_cycles_alpha_gamma\20240328_2-128_001_alpha_K-1.mps
Saved on :
	File : 20240328_2-128_008_gamma_Na-2_03_CVA_C02.mpr
	Directory : C:\Users\NakamuraT\Documents\EC-Lab\Data\Yatsuzuka\20240401_2-128_CV_cycles_alpha_gamma\
	Host : 192.109.209.100
Device : SP-150e (SN .003411)
Address : 192.109.209.236
EC-Lab for windows v11.50 (software)
Internet server v11.50 (firmware)
Command interpretor v11.50 (firmware)
Electrode material :
Initial state :
Electrolyte :
Comments :
Electrode surface area : 0.001 cm2
Characteristic mass : 0.001 g
Equivalent Weight : 0.000 g/eq.
Density : 0.000 g/cm3
Volume (V) : 0.001 cm3
Cycle Definition : Charge/Discharge alternance
Ei (V)              0.450
vs.                 Ref
ti (h:m:s)          0:00:10.0000
dti (s)             0.0000
dE/dt               5.000
dE/dt unit          mV/s
E1 (V)              0.700
vs.                 Ref
t1 (h:m:s)          0:00:0.0000
dt1 (s)             0.1000
Step percent        50
N                   10
E range min (V)     -1.000
E range max (V)     1.000
I Range             10 mA
I Range min         Unset
I Range max         Unset
I Range init        Unset
Bandwidth           5
E2 (V)              0.450
vs.                 Ref
t2 (h:m:s)          0:00:0.0000
dt2 (s)             0.1000
nc cycles           14
nr                  1
Reverse Scan        0
Ef (V)              0.000
vs.                 Eoc
tf (h:m:s)          0:00:0.0000
dtf (s)             0.1000

mode	ox/red	error	control changes	Ns changes	counter inc.	time/s	control/V	Ewe/V	<I>/mA	cycle number	(Q-Qo)/C	I Range	Ns	step time/s	P/W
2	0	0	0	0	0	231.742	0.449953	0.45016	-0.00226018	1	0.0000000E+000	11	0	0.000000000000000E+000	-1.01744e-06
2	1	0	0	0	0	244.48	0.51364	0.513975	0.00231115	1	1.63486e-05	11	0	12.6826	1.18787e-06
2	1	0	0	0	0	257.262	0.577552	0.577919	0.0175413	1	0.000106316	11	0	25.465	1.01374e-05
2	1	0	1	0	0	270.045	0.641465	0.641805	0.179145	1	0.00103718	11	0	38.2475	0.000114976
2	1	0	1	0	0	282.611	0.695689	0.696007	0.685039	1	0.00660846	11	0	50.8135	0.000476792
2	1	0	1	0	0	295.393	0.631778	0.632099	0.12198	1	0.0110024	11	0	63.5959	7.71035e-05
2	1	0	1	0	0	308.175	0.567866	0.568115	0.00839072	1	0.0116018	11	0	76.3783	4.76689e-06
2	1	0	1	0	0	320.958	0.503954	0.5043	-0.00190741	1	0.011616	11	0	5.8919	-9.61908e-07
2	1	0	1	0	1	333.506	0.458816	0.459177	0.000475419	2	0.0115906	11	0	1.5978	2.18301e-07
2	0	0	1	0	1	346.289	0.522728	0.523	0.00219292	2	0.011604	11	0	14.3802	1.14689e-06
2	1	0	1	0	1	359.071	0.58664	0.586938	0.0225408	2	0.0117086	11	0	27.1626	1.32301e-05
2	1	0	1	0	1	371.854	0.650552	0.650948	0.227879	2	0.0129172	11	0	39.945	0.000148337
2	1	0	1	0	1	384.4	0.686702	0.687055	0.557813	2	0.0191565	11	0	52.4911	0.000383248
2	1	0	1	0	1	397.182	0.62279	0.623189	0.0904473	2	0.0226351	11	0	65.2735	5.63657e-05
2	1	0	1	0	1	409.965	0.558878	0.559259	0.00430601	2	0.0230548	11	0	78.0559	2.40817e-06
2	0	0	1	0	1	422.747	0.494966	0.49532	-0.00212938	2	0.0230516	11	0	8.0889	-1.05472e-06
2	0	0	1	0	0	435.296	0.467803	0.46807	0.000565954	3	0.0230301	11	0	3.3953	2.64906e-07
2	1	0	1	0	0	448.078	0.531715	0.532046	0.00266093	3	0.0230462	11	0	16.1777	1.41574e-06
2	1	0	1	0	0	460.86	0.595628	0.59598	0.0323072	3	0.0231916	11	0	28.9602	1.92545e-05
2	1	0	1	0	0	473.643	0.65954	0.659886	0.296046	3	0.0248291	11	0	41.7426	0.000195357
2	1	0	1	0	0	486.189	0.677715	0.678084	0.45563	3	0.03155	11	0	54.2886	0.000308955
2	1	0	1	0	0	498.971	0.613803	0.614167	0.066909	3	0.0343027	11	0	67.071	4.10933e-05
2	1	0	0	0	0	511.754	0.54989	0.550179	0.00197427	3	0.0345928	11	0	79.8535	1.0862e-06
2	0	0	0	0	0	524.536	0.485978	0.486305	-0.00222968	3	0.0345798	11	0	9.9863	-1.08431e-06
2	0	0	1	0	1	537.085	0.476791	0.477085	0.000704217	4	0.0345639	11	0	5.1928	3.35971e-07
2	1	0	1	0	1	549.867	0.540703	0.541019	0.0034034	4	0.0345848	11	0	17.9752	1.8413e-06
2	1	0	0	0	1	562.65	0.604615	0.604881	0.0468096	4	0.0347951	11	0	30.7577	2.83143e-05
2	1	0	0	0	1	575.432	0.668527	0.668826	0.378479	4	0.0369871	11	0	43.5401	0.000253137
2	1	0	1	0	1	587.978	0.668727	0.669047	0.369223	4	0.0439097	11	0	56.0862	0.000247028
2	1	0	1	0	1	600.76	0.604815	0.605185	0.0484609	4	0.0460678	11	0	68.8686	2.93278e-05
2	1	0	1	0	1	613.543	0.540903	0.541176	0.000679622	4	0.0462619	11	0	81.651	3.67796e-07
2	0	0	1	0	1	626.325	0.476991	0.477313	-0.00229888	4	0.0462429	11	0	11.7838	-1.09728e-06
2	1	0	1	0	0	638.874	0.485779	0.486045	0.000721679	5	0.0462328	11	0	6.9904	3.50769e-07
2	1	0	1	0	0	651.656	0.549691	0.549962	0.00486512	5	0.0462594	11	0	19.7728	2.67563e-06
2	1	0	1	0	0	664.439	0.613603	0.613953	0.0672482	5	0.0465643	11	0	32.5552	4.12872e-05
2	1	0	1	0	0	677.221	0.677515	0.677809	0.476617	5	0.0494566	11	0	45.3376	0.000323055
2	1	0	1	0	0	689.767	0.659739	0.66006	0.296631	5	0.0562885	11	0	57.8837	0.000195794
2	1	0	1	0	0	702.55	0.595827	0.596148	0.034129	5	0.0579613	11	0	70.6661	2.0346e-05
2	1	0	1	0	0	715.332	0.531915	0.532216	-0.000413597	5	0.0580851	11	0	0.7989	-2.20123e-07
2	0	0	1	0	0	728.114	0.468003	0.468286	-0.00257354	5	0.0580614	11	0	13.5814	-1.20515e-06
2	1	0	1	0	1	740.663	0.494766	0.495107	0.000886036	6	0.0580576	11	0	8.7879	4.38683e-07
2	1	0	1	0	1	753.445	0.558678	0.559033	0.00678088	6	0.0580925	11	0	21.5703	3.79074e-06
2	1	0	1	0	1	766.228	0.62259	0.622953	0.0956984	6	0.0585378	11	0	34.3527	5.96156e-05
2	1	0	1	0	1	779.01	0.686503	0.686891	0.588925	6	0.0622871	11	0	47.1352	0.000404527
2	1	0	1	0	1	791.556	0.650752	0.651067	0.235024	6	0.0687118	11	0	59.6812	0.000153016
2	1	0	1	0	1	804.339	0.58684	0.587209	0.0230922	6	0.0699865	11	0	72.4636	1.35599e-05
2	1	0	1	0	1	817.121	0.522928	0.523282	-0.00109759	6	0.0700591	11	0	2.5964	-5.74349e-07
2	1	0	0	0	1	829.904	0.459015	0.459361	-0.00263214	6	0.0700321	11	0	15.3789	-1.2091e-06
2	1	0	1	0	0	842.452	0.503754	0.504066	0.0012647	7	0.0700352	11	0	10.4856	6.37491e-07
2	1	0	1	0	0	855.234	0.567666	0.567992	0.00984598	7	0.0700832	11	0	23.268	5.59244e-06
2	1	0	1	0	0	868.017	0.631578	0.631879	0.13362	7	0.0707246	11	0	36.0504	8.44315e-05
2	1	0	0	0	0	880.799	0.69549	0.695821	0.716783	7	0.0754966	11	0	48.8329	0.000498753
2	1	0	0	0	0	893.345	0.641764	0.642153	0.184387	7	0.0811929	11	0	61.3789	0.000118404
2	1	0	1	0	0	906.128	0.577851	0.578235	0.0149551	7	0.0821492	11	0	74.1614	8.64754e-06
2	0	0	1	0	0	918.91	0.51394	0.514287	-0.0015598	7	0.082187	11	0	4.394	-8.02188e-07
2	0	0	1	0	0	931.668	0.450153	0.450467	-0.00254037	7	0.0821582	11	0	17.1515	-1.14435e-06
2	0	0	1	0	1	944.241	0.512742	0.513017	0.00152704	8	0.0821686	11	0	12.4829	7.83397e-07
2	1	0	1	0	1	957.024	0.576654	0.577006	0.0147459	8	0.0822366	11	0	25.2653	8.50851e-06
2	1	0	1	0	1	969.806	0.640566	0.640957	0.182383	8	0.0831524	11	0	38.0477	0.0001169
2	1	0	1	0	1	982.352	0.696689	0.697078	0.736237	8	0.0888872	11	0	50.5937	0.000513214
2	1	0	1	0	1	995.134	0.632777	0.633084	0.1425	8	0.0937756	11	0	63.3761	9.02144e-05
2	1	0	1	0	1	1007.92	0.568864	0.569239	0.00915106	8	0.0944793	11	0	76.1586	5.20914e-06
[...]
2	1	0	0	0	1	1198.71	0.614801	0.615137	0.0807735	10	0.119261	11	0	66.9712	4.96867e-05
2	1	0	0	0	1	1211.5	0.550889	0.551181	0.00240615	10	0.119612	11	0	79.7536	1.32622e-06
2	0	0	1	0	1	1224.28	0.486977	0.487307	-0.00208009	10	0.119601	11	0	9.6867	-1.01364e-06
2	0	0	0	0	0	1236.83	0.475792	0.476109	0.0007957	11	0.119586	11	0	5.093	3.7884e-07
2	1	0	0	0	0	1249.61	0.539704	0.540019	0.00338444	11	0.119607	11	0	17.8754	1.82766e-06
2	1	0	1	0	0	1262.39	0.603617	0.604027	0.0497267	11	0.119821	11	0	30.6579	3.00363e-05
2	1	0	1	0	0	1275.17	0.667529	0.667857	0.405158	11	0.122185	11	0	43.4403	0.000270588
2	1	0	1	0	0	1287.72	0.669726	0.670045	0.417143	11	0.129662	11	0	55.9863	0.000279505
2	1	0	1	0	0	1300.5	0.605814	0.606136	0.0587357	11	0.13217	11	0	68.7687	3.56018e-05
2	1	0	1	0	0	1313.28	0.541902	0.542171	0.000720407	11	0.132405	11	0	81.5511	3.90583e-07
2	0	0	1	0	0	1326.07	0.477989	0.478301	-0.00222997	11	0.132387	11	0	11.4842	-1.0666e-06
2	1	0	1	0	1	1338.62	0.48478	0.485084	0.000822023	12	0.132377	11	0	6.6908	3.9875e-07
2	1	0	1	0	1	1351.4	0.548692	0.549038	0.00463584	12	0.132403	11	0	19.4732	2.54525e-06
2	1	0	1	0	1	1364.18	0.612604	0.61294	0.0724625	12	0.132722	11	0	32.2557	4.44151e-05
2	1	0	1	0	1	1376.96	0.676516	0.676873	0.505218	12	0.135827	11	0	45.0381	0.000341968
2	1	0	1	0	1	1389.51	0.660738	0.661058	0.33821	12	0.143229	11	0	57.5842	0.000223576
2	1	0	1	0	1	1402.29	0.596826	0.59713	0.04131	12	0.145187	11	0	70.3666	2.46674e-05
2	0	0	1	0	1	1415.07	0.532914	0.533234	-0.00015912	12	0.145337	11	0	0.3994	-8.48484e-08
2	0	0	1	0	1	1427.86	0.469002	0.469298	-0.0023762	12	0.145314	11	0	13.1818	-1.11514e-06
2	1	0	1	0	0	1440.4	0.493768	0.494061	0.000860091	13	0.14531	11	0	8.5882	4.24937e-07
2	1	0	1	0	0	1453.19	0.55768	0.557981	0.00676274	13	0.145344	11	0	21.3706	3.77348e-06
2	1	0	1	0	0	1465.97	0.621592	0.621923	0.103648	13	0.145815	11	0	34.153	6.44612e-05
2	1	0	1	0	0	1478.75	0.685504	0.685848	0.6204	13	0.149817	11	0	46.9354	0.0004255
2	1	0	0	0	0	1491.3	0.65175	0.652089	0.270588	13	0.156824	11	0	59.4815	0.000176447
2	1	0	0	0	0	1504.08	0.587838	0.58818	0.0279795	13	0.158324	11	0	72.2639	1.64569e-05
2	1	0	0	0	0	1516.86	0.523926	0.524192	-0.000944783	13	0.158413	11	0	2.1969	-4.95248e-07
2	0	0	1	0	0	1529.65	0.460014	0.460332	-0.00242749	13	0.158387	11	0	14.9794	-1.11745e-06
2	1	0	0	0	1	1542.19	0.502755	0.503099	0.00129594	14	0.15839	11	0	10.5406	6.51985e-07
2	1	0	0	0	1	1554.98	0.566667	0.567014	0.00982424	14	0.158436	11	0	23.323	5.57048e-06
2	1	0	0	0	1	1567.76	0.63058	0.630873	0.144448	14	0.159122	11	0	36.1054	9.11285e-05
2	1	0	1	0	1	1580.54	0.694492	0.694862	0.747451	14	0.16418	11	0	48.8879	0.000519375
2	1	0	1	0	1	1593.09	0.642763	0.643104	0.213116	14	0.170451	11	0	61.4339	0.000137056
2	1	0	1	0	1	1605.87	0.578851	0.579143	0.0179793	14	0.171578	11	0	74.2163	1.04126e-05
2	0	0	1	0	1	1618.65	0.514939	0.515271	-0.00139165	14	0.171625	11	0	4.1942	-7.17079e-07
2	0	0	1	0	1	1631.43	0.451026	0.45132	-0.00241234	14	0.171597	11	0	16.9767	-1.08874e-06
2	1	0	1	0	0	1643.98	0.511743	0.512064	0.00148386	15	0.171607	11	0	12.1832	7.59829e-07
2	1	0	1	0	0	1656.77	0.575655	0.575984	0.0149651	15	0.171674	11	0	24.9656	8.61964e-06
2	1	0	1	0	0	1669.55	0.639567	0.639901	0.195629	15	0.172652	11	0	37.748	0.000125183
2	1	0	1	0	0	1682.09	0.697687	0.698006	0.796106	15	0.178698	11	0	50.2941	0.000555687
2	1	0	1	0	0	1694.88	0.633775	0.634105	0.16563	15	0.184129	11	0	63.0765	0.000105027
2	1	0	1	0	0	1707.66	0.569863	0.570235	0.0109727	15	0.184959	11	0	75.859	6.25702e-06
2	0	0	1	0	0	1720.44	0.505951	0.506252	-0.00182391	15	0.184979	11	0	5.8919	-9.23361e-07
2	0	0	1	0	0	1731.63	0.450003	0.450217	-0.0026642	15	0.184954	11	0	17.0772	-1.19947e-06