Folder: SI_for_publications/ACS_Catal_2026/Figures_Na_K/main_figures/data/EC/20240401_2-128_CV_cycles_alpha_gamma/gamma (part 2)

File: 20240328_2-128_004_gamma_Na-1_02_PEIS_C02.mpt
EC-Lab ASCII FILE
Nb header lines : 63

Potentio Electrochemical Impedance Spectroscopy

Run on channel : 2 (SN 66414)
User :
CE vs. WE compliance from -10 V to 10 V
Electrode connection : standard
Potential control : Ewe
Ewe ctrl range : min = -1.00 V, max = 1.00 V
Safety Limits :
	Do not start on E overload
Acquisition started on : 04/01/2024 19:26:22.905
Loaded Setting File :  C:\Users\NakamuraT\Documents\EC-Lab\Data\Yatsuzuka\20240401_2-128_CV_cycles_alpha_gamma\20240328_2-128_001_alpha_K-1.mps
Saved on :
	File : 20240328_2-128_004_gamma_Na-1_02_PEIS_C02.mpr
	Directory : C:\Users\NakamuraT\Documents\EC-Lab\Data\Yatsuzuka\20240401_2-128_CV_cycles_alpha_gamma\
	Host : 192.109.209.100
Device : SP-150e (SN .003411)
Address : 192.109.209.236
EC-Lab for windows v11.50 (software)
Internet server v11.50 (firmware)
Command interpretor v11.50 (firmware)
Electrode material :
Initial state :
Electrolyte :
Comments :
Electrode surface area : 0.001 cm2
Characteristic mass : 0.001 g
Equivalent Weight : 0.000 g/eq.
Density : 0.000 g/cm3
Volume (V) : 0.001 cm3
Cycle Definition : Charge/Discharge alternance
Mode                Single sine
E (V)               0.4500
vs.                 Ref
tE (h:m:s)          0:00:0.0000
record              0
dI                  0.000
unit dI             mA
dt (s)              0.000
fi                  500.000
unit fi             kHz
ff                  1.000
unit ff             Hz
Nd                  6
Points              per decade
spacing             Logarithmic
Va (mV)             10.0
pw                  0.10
Na                  2
corr                0
E range min (V)     -1.000
E range max (V)     1.000
I Range             Auto
Bandwidth           5
nc cycles           0
goto Ns'            0
nr cycles           0
inc. cycle          0

freq/Hz	Re(Z)/Ohm	-Im(Z)/Ohm	|Z|/Ohm	Phase(Z)/deg	time/s	<Ewe>/V	<I>/mA	Cs/uF	Cp/uF	cycle number	I Range	|Ewe|/V	|I|/A	Ns	(Q-Qo)/mA.h	Re(Y)/Ohm-1	Im(Y)/Ohm-1	|Y|/Ohm-1	Phase(Y)/deg	Re(C)/nF	Im(C)/nF	|C|/nF	Phase(C)/deg	Re(M)	Im(M)	|M|	Phase(M)/deg	Re(Permittivity)	Im(Permittivity)	|Permittivity|	Phase(Permittivity)/deg	Re(Resistivity)/Ohm.cm	Im(Resistivity)/Ohm.cm	|Resistivity|/Ohm.cm	Phase(Resistivity)/deg	Re(Conductivity)/mS/cm	Im(Conductivity)/mS/cm	|Conductivity|/mS/cm	Phase(Conductivity)/deg	Tan(Delta)	Loss Angle(Delta)/deg	dq/mA.h
500019	45.5581	8.42368	46.3303	-10.4757	201.387	0.450433	-0.00129313	0.0377861	0.00124912	1	11	0.0103727	0.000223886	0	5.03e-07	0.0212244	0.00392438	0.0215841	10.4757	1.24912	6.75567	6.87019	-79.5243	0.0000000E+000	0.0000000E+000	0.0000000E+000	79.5243	0.0000000E+000	0.0000000E+000	0.0000000E+000	-79.5243	0.0000000E+000	0.0000000E+000	0.0000000E+000	-10.4757	0.0000000E+000	0.0000000E+000	0.0000000E+000	10.4757	5.40834	79.5243	5.03e-07
231063	28.7555	-1.00057	28.7729	1.99284	202.67	0.450273	-0.00381975	-0.688406	-0.000832473	1	10	0.00990226	0.000344153	0	7.48274e-07	0.0347339	-0.00120859	0.034755	-1.99284	-0.832474	23.9246	23.9391	-91.9928	0.0000000E+000	0.0000000E+000	0.0000000E+000	91.9928	0.0000000E+000	0.0000000E+000	0.0000000E+000	-91.9928	0.0000000E+000	0.0000000E+000	0.0000000E+000	1.99284	0.0000000E+000	0.0000000E+000	0.0000000E+000	-1.99284	28.7392	88.0072	-1.83714e-07
106786	25.9642	-0.143325	25.9646	0.316275	203.514	0.450271	-0.00394109	-10.3988	-0.000316857	1	10	0.0106552	0.000410374	0	-5.1184e-07	0.0385134	-0.000212598	0.038514	-0.316275	-0.316858	57.4006	57.4014	-90.3163	0.0000000E+000	0.0000000E+000	0.0000000E+000	90.3163	0.0000000E+000	0.0000000E+000	0.0000000E+000	-90.3163	0.0000000E+000	0.0000000E+000	0.0000000E+000	0.316275	0.0000000E+000	0.0000000E+000	0.0000000E+000	-0.316275	181.156	89.6837	-1.08846e-06
49352.4	25.5556	0.0206233	25.5556	-0.0462376	204.358	0.450285	-0.00418189	156.37	0.000101835	1	10	0.0104163	0.000407594	0	-1.94315e-07	0.0391304	3.15782e-05	0.0391304	0.0462376	0.101828	126.19	126.19	-89.9538	0.0000000E+000	0.0000000E+000	0.0000000E+000	89.9538	0.0000000E+000	0.0000000E+000	0.0000000E+000	-89.9538	0.0000000E+000	0.0000000E+000	0.0000000E+000	-0.0462376	0.0000000E+000	0.0000000E+000	0.0000000E+000	0.0462376	1239.16	89.9538	4.64705e-08
22806.6	25.4278	0.052454	25.4279	-0.118193	205.203	0.450283	-0.00393549	133.04	0.000566134	1	10	0.0102551	0.000403304	0	-1.2054e-06	0.0393269	8.11258e-05	0.0393269	0.118193	0.566142	274.441	274.442	-89.8818	0.0000000E+000	0.0000000E+000	0.0000000E+000	89.8818	0.0000000E+000	0.0000000E+000	0.0000000E+000	-89.8818	0.0000000E+000	0.0000000E+000	0.0000000E+000	-0.118193	0.0000000E+000	0.0000000E+000	0.0000000E+000	0.118193	484.764	89.8818	-7.47444e-07
10540.4	25.408	0.0901455	25.4081	-0.20328	205.912	0.450287	-0.00521231	167.502	0.00210845	1	10	0.0107469	0.000422971	0	-2.17184e-06	0.0393572	0.000139636	0.0393575	0.20328	2.10842	594.276	594.28	-89.7967	0.0000000E+000	0.0000000E+000	0.0000000E+000	89.7967	0.0000000E+000	0.0000000E+000	0.0000000E+000	-89.7967	0.0000000E+000	0.0000000E+000	0.0000000E+000	-0.20328	0.0000000E+000	0.0000000E+000	0.0000000E+000	0.20328	281.855	89.7967	-5.92094e-07
4871.56	25.4326	0.195596	25.4334	-0.440639	206.904	0.450301	-0.00501071	167.029	0.0098788	1	10	0.0102828	0.000404304	0	-2.81724e-06	0.0393172	0.000302379	0.0393184	0.440639	9.87872	1284.5	1284.54	-89.5594	0.0000000E+000	0.0000000E+000	0.0000000E+000	89.5594	0.0000000E+000	0.0000000E+000	0.0000000E+000	-89.5594	0.0000000E+000	0.0000000E+000	0.0000000E+000	-0.440639	0.0000000E+000	0.0000000E+000	0.0000000E+000	0.440639	130.026	89.5594	-3.49385e-07
2250.72	25.4592	0.442251	25.4631	-0.995182	207.835	0.450299	-0.00547365	159.893	0.0482332	1	10	0.0103891	0.000408007	0	-4.19475e-06	0.0392667	0.000682099	0.0392726	0.995182	48.2334	2776.66	2777.08	-89.0048	0.0000000E+000	0.0000000E+000	0.0000000E+000	89.0048	0.0000000E+000	0.0000000E+000	0.0000000E+000	-89.0048	0.0000000E+000	0.0000000E+000	0.0000000E+000	-0.995182	0.0000000E+000	0.0000000E+000	0.0000000E+000	0.995182	57.5673	89.0048	-3.59467e-07
1040.33	25.4782	0.857039	25.4926	-1.9266	208.765	0.450298	-0.00528698	178.504	0.201753	1	10	0.0104065	0.000408216	0	-5.69916e-06	0.0392049	0.00131878	0.0392271	1.9266	201.753	5997.75	6001.14	-88.0734	0.0000000E+000	0.0000000E+000	0.0000000E+000	88.0734	0.0000000E+000	0.0000000E+000	0.0000000E+000	-88.0734	0.0000000E+000	0.0000000E+000	0.0000000E+000	-1.9266	0.0000000E+000	0.0000000E+000	0.0000000E+000	1.9266	29.7282	88.0734	-1.10045e-06
480.769	25.6453	1.7168	25.7027	-3.82989	209.695	0.450303	-0.00601872	192.826	0.86029	1	10	0.0104175	0.000405309	0	-6.81048e-06	0.0388195	0.00259873	0.0389064	3.82989	860.29	12850.9	12879.7	-86.1701	0.0000000E+000	0.0000000E+000	0.0000000E+000	86.1701	0.0000000E+000	0.0000000E+000	0.0000000E+000	-86.1701	0.0000000E+000	0.0000000E+000	0.0000000E+000	-3.82989	0.0000000E+000	0.0000000E+000	0.0000000E+000	3.82989	14.9379	86.1701	-5.61105e-07
222.061	25.8881	3.47692	26.1205	-7.64938	210.872	0.45029	-0.000689387	206.136	3.65241	1	11	0.0104413	0.000399734	0	-8.58611e-06	0.0379434	0.00509602	0.0382841	7.64938	3652.41	27194.7	27438.9	-82.3506	0.0000000E+000	0.0000000E+000	0.0000000E+000	82.3506	0.0000000E+000	0.0000000E+000	0.0000000E+000	-82.3506	0.0000000E+000	0.0000000E+000	0.0000000E+000	-7.64938	0.0000000E+000	0.0000000E+000	0.0000000E+000	7.64938	7.44569	82.3506	-1.04047e-06
102.667	26.2415	7.06327	27.1754	-15.0649	211.811	0.450291	-0.000991536	219.473	14.8266	1	11	0.0104409	0.000384202	0	-9.21065e-06	0.0355333	0.00956429	0.0367979	15.0649	14826.6	55083.7	57044.2	-74.9351	0.0000000E+000	0.0000000E+000	0.0000000E+000	74.9351	0.0000000E+000	0.0000000E+000	0.0000000E+000	-74.9351	0.0000000E+000	0.0000000E+000	0.0000000E+000	-15.0649	0.0000000E+000	0.0000000E+000	0.0000000E+000	15.0649	3.7152	74.9351	-4.47499e-07
47.4443	26.8265	14.5363	30.5117	-28.4517	212.722	0.450282	-0.00127485	230.771	52.3791	1	11	0.0104298	0.000341828	0	-1.00039e-05	0.0288158	0.0156143	0.0327743	28.4517	52379.1	96664.3	109943	-61.5483	0.0000000E+000	0.0000000E+000	0.0000000E+000	61.5483	0.0000000E+000	0.0000000E+000	0.0000000E+000	-61.5483	0.0000000E+000	0.0000000E+000	0.0000000E+000	-28.4517	0.0000000E+000	0.0000000E+000	0.0000000E+000	28.4517	1.84548	61.5483	-4.30908e-07
21.9144	27.9569	30.2959	41.2241	-47.2993	213.59	0.450275	-0.00150016	239.721	129.47	1	11	0.0104285	0.000252969	0	-1.06873e-05	0.0164508	0.0178271	0.0242576	47.2993	129470	119475	176172	-42.7007	0.0000000E+000	0.0000000E+000	0.0000000E+000	42.7007	0.0000000E+000	0.0000000E+000	0.0000000E+000	-42.7007	0.0000000E+000	0.0000000E+000	0.0000000E+000	-47.2993	0.0000000E+000	0.0000000E+000	0.0000000E+000	47.2993	0.922797	42.7007	-7.57275e-07
10.1329	30.2964	63.2816	70.16	-64.417	214.517	0.450285	-0.00103295	248.203	201.921	1	11	0.0104219	0.000148545	0	-1.128e-05	0.00615477	0.0128558	0.0142531	64.417	201921	96671	223869	-25.583	0.0000000E+000	0.0000000E+000	0.0000000E+000	25.583	0.0000000E+000	0.0000000E+000	0.0000000E+000	-25.583	0.0000000E+000	0.0000000E+000	0.0000000E+000	-64.417	0.0000000E+000	0.0000000E+000	0.0000000E+000	64.417	0.478756	25.583	-2.46287e-07
4.68375	34.6959	131.615	136.111	-75.2318	215.632	0.4503	-1.1096e-05	258.18	241.404	1	12	0.0104242	7.65863e-05	0	-1.12117e-05	0.0018728	0.00710424	0.00734695	75.2318	241404	63638.2	249651	-14.7682	0.0000000E+000	0.0000000E+000	0.0000000E+000	14.7682	0.0000000E+000	0.0000000E+000	0.0000000E+000	-14.7682	0.0000000E+000	0.0000000E+000	0.0000000E+000	-75.2318	0.0000000E+000	0.0000000E+000	0.0000000E+000	75.2318	0.263617	14.7682	-5.54159e-07
2.16533	44.1227	276.539	280.037	-80.9347	217.347	0.450304	0.000174647	265.791	259.192	1	12	0.010421	3.72129e-05	0	-1.0035e-05	0.000562641	0.00352635	0.00357096	80.9347	259193	41355	262471	-9.06531	0.0000000E+000	0.0000000E+000	0.0000000E+000	9.06531	0.0000000E+000	0.0000000E+000	0.0000000E+000	-9.06531	0.0000000E+000	0.0000000E+000	0.0000000E+000	-80.9347	0.0000000E+000	0.0000000E+000	0.0000000E+000	80.9347	0.159553	9.06531	8.33391e-07
1.00006	63.8506	581.466	584.961	-83.7335	221.687	0.450308	0.000282279	273.696	270.435	1	13	0.0104242	1.78204e-05	0	-1.04317e-05	0.0001866	0.0016993	0.00170952	83.7335	270435	29696.4	272060	-6.26653	0.0000000E+000	0.0000000E+000	0.0000000E+000	6.26653	0.0000000E+000	0.0000000E+000	0.0000000E+000	-6.26653	0.0000000E+000	0.0000000E+000	0.0000000E+000	-83.7335	0.0000000E+000	0.0000000E+000	0.0000000E+000	83.7335	0.10981	6.26653	-4.80851e-07

File: 20240328_2-128_004_gamma_Na-1_03_CVA_C02.mpt
EC-Lab ASCII FILE
Nb header lines : 66

Cyclic Voltammetry Advanced

Run on channel : 2 (SN 66414)
User :
CE vs. WE compliance from -10 V to 10 V
Electrode connection : standard
Potential control : Ewe
Ewe ctrl range : min = -1.00 V, max = 1.00 V
Safety Limits :
	Do not start on E overload
Acquisition started on : 04/01/2024 19:26:22.905
Loaded Setting File :  C:\Users\NakamuraT\Documents\EC-Lab\Data\Yatsuzuka\20240401_2-128_CV_cycles_alpha_gamma\20240328_2-128_001_alpha_K-1.mps
Saved on :
	File : 20240328_2-128_004_gamma_Na-1_03_CVA_C02.mpr
	Directory : C:\Users\NakamuraT\Documents\EC-Lab\Data\Yatsuzuka\20240401_2-128_CV_cycles_alpha_gamma\
	Host : 192.109.209.100
Device : SP-150e (SN .003411)
Address : 192.109.209.236
EC-Lab for windows v11.50 (software)
Internet server v11.50 (firmware)
Command interpretor v11.50 (firmware)
Electrode material :
Initial state :
Electrolyte :
Comments :
Electrode surface area : 0.001 cm2
Characteristic mass : 0.001 g
Equivalent Weight : 0.000 g/eq.
Density : 0.000 g/cm3
Volume (V) : 0.001 cm3
Cycle Definition : Charge/Discharge alternance
Ei (V)              0.450
vs.                 Ref
ti (h:m:s)          0:00:10.0000
dti (s)             0.0000
dE/dt               5.000
dE/dt unit          mV/s
E1 (V)              0.700
vs.                 Ref
t1 (h:m:s)          0:00:0.0000
dt1 (s)             0.1000
Step percent        50
N                   10
E range min (V)     -1.000
E range max (V)     1.000
I Range             10 mA
I Range min         Unset
I Range max         Unset
I Range init        Unset
Bandwidth           5
E2 (V)              0.450
vs.                 Ref
t2 (h:m:s)          0:00:0.0000
dt2 (s)             0.1000
nc cycles           14
nr                  1
Reverse Scan        0
Ef (V)              0.000
vs.                 Eoc
tf (h:m:s)          0:00:0.0000
dtf (s)             0.1000

mode	ox/red	error	control changes	Ns changes	counter inc.	time/s	control/V	Ewe/V	<I>/mA	cycle number	(Q-Qo)/C	I Range	Ns	step time/s	P/W
2	0	0	1	0	0	231.808	0.449937	0.450156	-0.00200553	1	0.0000000E+000	11	0	0.000000000000000E+000	-9.02804e-07
2	1	0	1	0	0	244.645	0.514124	0.514382	0.00281516	1	1.78941e-05	11	0	12.7825	1.44807e-06
2	1	0	0	0	0	257.527	0.578535	0.578846	0.0181577	1	0.000118582	11	0	25.6648	1.05105e-05
2	1	0	1	0	0	270.409	0.642947	0.643248	0.152027	1	0.000948422	11	0	38.5471	9.77911e-05
2	1	0	1	0	0	283.168	0.693228	0.693564	0.575111	1	0.00601639	11	0	51.3059	0.000398877
2	1	0	1	0	0	296.051	0.628816	0.629082	0.0842093	1	0.00945833	11	0	64.1882	5.29746e-05
2	1	0	1	0	0	308.933	0.564405	0.564717	0.00698427	1	0.00987814	11	0	77.0705	3.94413e-06
2	0	0	0	0	0	321.815	0.499993	0.500295	-0.00206094	1	0.00988944	11	0	5.1929	-1.03108e-06
2	0	0	1	0	1	334.47	0.463294	0.463541	0.000304106	2	0.00986561	11	0	1.6977	1.40966e-07
2	1	0	1	0	1	347.353	0.527705	0.528033	0.0028685	2	0.00988366	11	0	14.5799	1.51466e-06
2	1	0	1	0	1	360.235	0.592117	0.59242	0.0250288	2	0.0100152	11	0	27.4623	1.48275e-05
2	1	0	0	0	1	373.117	0.656528	0.656845	0.21389	2	0.0111853	11	0	40.3446	0.000140493
2	1	0	0	0	1	385.856	0.679746	0.680028	0.393496	2	0.016852	11	0	53.0834	0.000267589
2	1	0	1	0	1	398.738	0.615335	0.615646	0.0504374	2	0.0190865	11	0	65.9657	3.10516e-05
2	1	0	1	0	1	411.621	0.550923	0.551244	0.00305676	2	0.0193229	11	0	78.848	1.68502e-06
2	0	0	1	0	1	424.503	0.486512	0.486794	-0.0024394	2	0.0193142	11	0	8.5882	-1.18749e-06
2	0	0	1	0	0	437.158	0.476775	0.477068	0.000384005	3	0.0192979	11	0	5.093	1.83196e-07
2	1	0	1	0	0	450.041	0.541187	0.541458	0.00405647	3	0.0193225	11	0	17.9754	2.1964e-06
2	1	0	1	0	0	462.923	0.605598	0.605919	0.0390393	3	0.0195219	11	0	30.8576	2.36546e-05
2	1	0	1	0	0	475.805	0.67001	0.670346	0.310571	3	0.0212674	11	0	43.74	0.00020819
2	1	0	1	0	0	488.544	0.666265	0.666512	0.264089	3	0.0270444	11	0	56.4788	0.000176019
2	1	0	0	0	0	501.426	0.601853	0.602124	0.0295841	3	0.0284822	11	0	69.3611	1.78133e-05
2	1	0	1	0	0	514.309	0.537442	0.537751	0.000601202	3	0.0286108	11	0	82.2434	3.23297e-07
2	0	0	1	0	0	527.191	0.47303	0.473326	-0.00247777	3	0.0285909	11	0	11.4842	-1.17279e-06
2	0	0	1	0	1	539.846	0.490257	0.490581	0.000821908	4	0.0285839	11	0	7.3899	4.03212e-07
2	1	0	1	0	1	552.728	0.554668	0.554973	0.00621408	4	0.0286205	11	0	20.2721	3.44865e-06
2	1	0	1	0	1	565.611	0.61908	0.619391	0.06013	4	0.028931	11	0	33.1545	3.7244e-05
2	1	0	1	0	1	578.493	0.683491	0.683832	0.441829	4	0.0315268	11	0	46.0367	0.000302137
2	1	0	1	0	1	591.232	0.652783	0.6531	0.172438	4	0.0368237	11	0	58.7756	0.000112619
2	1	0	1	0	1	604.114	0.588372	0.58866	0.0168356	4	0.0377262	11	0	71.6579	9.91045e-06
2	0	0	0	0	1	616.997	0.52396	0.524216	-0.00062028	4	0.0377903	11	0	1.0985	-3.25161e-07
2	1	0	1	0	1	629.879	0.459549	0.459845	-0.00254172	4	0.0377642	11	0	13.9808	-1.1688e-06
2	1	0	1	0	0	642.534	0.503738	0.504008	0.00149907	5	0.0377679	11	0	10.4856	7.55542e-07
2	1	0	1	0	0	655.416	0.56815	0.568476	0.00972113	5	0.0378216	11	0	23.368	5.52623e-06
2	1	0	1	0	0	668.299	0.632561	0.632877	0.0942335	5	0.0383091	11	0	36.2502	5.96382e-05
2	1	0	1	0	0	681.181	0.696973	0.697314	0.608349	5	0.042084	11	0	49.1326	0.00042421
2	1	0	1	0	0	693.92	0.639302	0.639618	0.110873	5	0.0463262	11	0	61.8714	7.09165e-05
2	1	0	1	0	0	706.802	0.57489	0.575162	0.00933424	5	0.0468846	11	0	74.7537	5.3687e-06
2	1	0	1	0	0	719.684	0.510479	0.51075	-0.00114415	5	0.0469095	11	0	4.1942	-5.84377e-07
2	1	0	1	0	1	732.34	0.452808	0.453126	0.000410091	6	0.0468816	11	0	0.0998	1.85823e-07
2	1	0	1	0	1	745.222	0.51722	0.51755	0.00215194	6	0.046895	11	0	12.9821	1.11374e-06
2	1	0	1	0	1	758.104	0.581631	0.581934	0.0158257	6	0.0469776	11	0	25.8644	9.20951e-06
2	1	0	1	0	1	770.987	0.646043	0.646326	0.147297	6	0.0477471	11	0	38.7468	9.52019e-05
2	1	0	1	0	1	783.725	0.690232	0.690504	0.506182	6	0.0526873	11	0	51.4856	0.000349521
2	1	0	0	0	1	796.608	0.625821	0.626171	0.0696406	6	0.0556585	11	0	64.3679	4.36069e-05
2	1	0	1	0	1	809.49	0.561409	0.561666	0.00483386	6	0.0559921	11	0	77.2502	2.71502e-06
2	1	0	1	0	1	822.372	0.496997	0.497235	-0.00175626	6	0.055993	11	0	6.8905	-8.73274e-07
2	1	0	0	0	0	835.028	0.46629	0.466601	0.000928699	7	0.0559708	11	0	2.9959	4.33332e-07
2	1	0	1	0	0	847.91	0.530701	0.530954	0.00305401	7	0.0559884	11	0	15.8782	1.62154e-06
2	1	0	1	0	0	860.792	0.595113	0.595414	0.0250211	7	0.0561166	11	0	28.7606	1.48979e-05
2	1	0	1	0	0	873.674	0.659524	0.659853	0.223501	7	0.0573214	11	0	41.6428	0.000147478
2	1	0	1	0	0	886.413	0.676751	0.677044	0.352718	7	0.0629108	11	0	54.3817	0.000238805
2	1	0	1	0	0	899.296	0.612339	0.612631	0.0429951	7	0.0648915	11	0	67.264	2.63401e-05
2	1	0	0	0	0	912.178	0.547927	0.548266	0.00143675	7	0.0650839	11	0	80.1463	7.8772e-07
2	1	0	1	0	0	925.06	0.483516	0.483764	-0.00200661	7	0.0650707	11	0	9.5868	-9.70724e-07
2	0	0	1	0	1	937.715	0.479771	0.480076	0.000566954	8	0.0650566	11	0	5.6922	2.72181e-07
2	1	0	0	0	1	950.598	0.544183	0.544506	0.00460596	8	0.065082	11	0	18.5745	2.50797e-06
2	1	0	1	0	1	963.48	0.608594	0.608909	0.0406312	8	0.0652857	11	0	31.4568	2.47407e-05
2	1	0	1	0	1	976.362	0.673006	0.673329	0.331202	8	0.067143	11	0	44.3392	0.000223008
2	1	0	1	0	1	989.101	0.663269	0.663633	0.237717	8	0.072784	11	0	57.078	0.000157757
2	1	0	1	0	1	1001.98	0.598858	0.599097	0.0255375	8	0.0740569	11	0	69.9603	1.52995e-05
2	1	0	1	0	1	1014.87	0.534446	0.534726	-0.000218962	8	0.0741599	11	0	0.000000000000000E+000	-1.17085e-07
[...]
2	1	0	1	0	1	1194.48	0.636306	0.636567	0.0998943	10	0.0918044	11	0	62.171	6.35894e-05
2	1	0	0	0	1	1207.36	0.571894	0.57222	0.00733763	10	0.0922984	11	0	75.0533	4.19874e-06
2	0	0	1	0	1	1220.24	0.507483	0.507766	-0.00190304	10	0.0923144	11	0	4.9932	-9.66297e-07
2	1	0	1	0	0	1232.9	0.455804	0.456116	0.000378549	11	0.0922876	11	0	0.8988	1.72662e-07
2	1	0	0	0	0	1245.78	0.520216	0.5205	0.00194325	11	0.0923016	11	0	13.7811	1.01146e-06
2	1	0	1	0	0	1258.66	0.584627	0.584872	0.0163243	11	0.0923876	11	0	26.6634	9.54762e-06
2	1	0	1	0	0	1271.54	0.649039	0.649311	0.161832	11	0.0932311	11	0	39.5457	0.00010508
2	1	0	1	0	0	1284.28	0.687236	0.687536	0.470524	11	0.0983854	11	0	52.2846	0.000323502
2	1	0	1	0	0	1297.16	0.622825	0.623155	0.0623679	11	0.101126	11	0	65.1669	3.88648e-05
2	1	0	1	0	0	1310.05	0.558413	0.558683	0.00320582	11	0.10142	11	0	78.0492	1.79104e-06
2	0	0	0	0	0	1322.93	0.494002	0.494248	-0.00240195	11	0.101416	11	0	7.6895	-1.18716e-06
2	0	0	1	0	1	1335.58	0.469285	0.469572	0.000475618	12	0.101396	11	0	3.2955	2.23337e-07
2	1	0	1	0	1	1348.47	0.533697	0.533949	0.00302799	12	0.101414	11	0	16.1778	1.61679e-06
2	1	0	0	0	1	1361.35	0.598109	0.598387	0.0272354	12	0.101552	11	0	29.0601	1.62973e-05
2	1	0	1	0	1	1374.23	0.66252	0.662848	0.24648	12	0.102883	11	0	41.9424	0.000163379
2	1	0	1	0	1	1386.97	0.673755	0.674047	0.326532	12	0.108568	11	0	54.6812	0.000220098
2	1	0	1	0	1	1399.85	0.609343	0.609621	0.0378028	12	0.11038	11	0	67.5636	2.30454e-05
2	1	0	1	0	1	1412.74	0.544932	0.545229	0.00103222	12	0.110546	11	0	80.4459	5.62798e-07
2	0	0	1	0	1	1425.62	0.48052	0.480767	-0.00254441	12	0.11053	11	0	10.6854	-1.22327e-06
2	1	0	1	0	0	1438.27	0.482767	0.483073	0.00107504	13	0.110517	11	0	5.8919	5.19321e-07
2	1	0	1	0	0	1451.15	0.547179	0.547484	0.00428949	13	0.110544	11	0	18.7742	2.34843e-06
2	1	0	1	0	0	1464.04	0.61159	0.611913	0.0443391	13	0.110765	11	0	31.6565	2.71317e-05
2	1	0	0	0	0	1476.92	0.676002	0.676266	0.362657	13	0.112824	11	0	44.5388	0.000245252
2	1	0	1	0	0	1489.66	0.660273	0.660559	0.22074	13	0.118436	11	0	57.2777	0.000145812
2	1	0	1	0	0	1502.54	0.595862	0.596147	0.0229681	13	0.119614	11	0	70.1599	1.36924e-05
2	0	0	1	0	0	1515.42	0.53145	0.53174	-0.000237169	13	0.119702	11	0	0.3995	-1.26112e-07
2	1	0	1	0	0	1528.31	0.467039	0.467357	-0.00215283	13	0.119678	11	0	13.2818	-1.00614e-06
2	1	0	0	0	1	1540.96	0.496248	0.496559	0.00140801	14	0.119675	11	0	8.9877	6.9916e-07
2	1	0	1	0	1	1553.84	0.56066	0.560952	0.00676078	14	0.119714	11	0	21.87	3.79247e-06
2	1	0	1	0	1	1566.73	0.625071	0.625377	0.0728685	14	0.120075	11	0	34.7523	4.55703e-05
2	1	0	1	0	1	1579.61	0.689483	0.689821	0.51251	14	0.123157	11	0	47.6346	0.000353541
2	1	0	1	0	1	1592.35	0.646792	0.647119	0.144371	14	0.12809	11	0	60.3734	9.34255e-05
2	1	0	1	0	1	1605.23	0.58238	0.582627	0.0123535	14	0.128827	11	0	73.2558	7.19746e-06
2	0	0	1	0	1	1618.11	0.517969	0.518228	-0.00128194	14	0.128866	11	0	3.1956	-6.64336e-07
2	0	0	1	0	1	1630.99	0.453557	0.453838	-0.00242638	14	0.128838	11	0	16.078	-1.10118e-06
2	1	0	1	0	0	1643.65	0.50973	0.510022	0.00180271	15	0.128847	11	0	11.5841	9.19421e-07
2	1	0	0	0	0	1656.53	0.574141	0.574407	0.0114688	15	0.128906	11	0	24.4664	6.58775e-06
2	1	0	1	0	0	1669.41	0.638553	0.638803	0.116116	15	0.129496	11	0	37.3487	7.41755e-05
2	1	0	1	0	0	1682.15	0.697722	0.698041	0.618364	15	0.133847	11	0	50.0875	0.000431643
2	1	0	1	0	0	1695.03	0.63331	0.633582	0.0931513	15	0.137606	11	0	62.9698	5.9019e-05
2	1	0	1	0	0	1707.92	0.568899	0.569202	0.00630092	15	0.138058	11	0	75.8521	3.5865e-06
2	1	0	1	0	0	1720.8	0.504487	0.504804	-0.00145836	15	0.138068	11	0	5.4925	-7.36187e-07
2	0	0	0	0	0	1731.69	0.449987	0.450366	-0.00383902	15	0.138043	11	0	16.385	-1.72897e-06