Folder: SI_for_publications/ACS_Catal_2026/Figures_Na_K/main_figures/data/EC/20240401_2-128_CV_cycles_alpha_gamma/gamma

Note: ACS_Catal_2026/ReadMe.md
## Codes to generate the figures in "Influence of Electrolyte Cations on the Oxygen Evolution Reaction of Nanochanneled Manganese Oxide"

All the code files were written by Koichi Yatsuzuka.
Includes the raw data files (binary and text).
The code uses Yatsuzuka's original library (included).

File: 20240328_2-128_002_gamma_K-1_02_PEIS_C02.mpt
EC-Lab ASCII FILE
Nb header lines : 63

Potentio Electrochemical Impedance Spectroscopy

Run on channel : 2 (SN 66414)
User :
CE vs. WE compliance from -10 V to 10 V
Electrode connection : standard
Potential control : Ewe
Ewe ctrl range : min = -1.00 V, max = 1.00 V
Safety Limits :
	Do not start on E overload
Acquisition started on : 04/01/2024 18:52:31.695
Loaded Setting File :  C:\Users\NakamuraT\Documents\EC-Lab\Data\Yatsuzuka\20240401_2-128_CV_cycles_alpha_gamma\20240328_2-128_001_alpha_K-1.mps
Saved on :
	File : 20240328_2-128_002_gamma_K-1_02_PEIS_C02.mpr
	Directory : C:\Users\NakamuraT\Documents\EC-Lab\Data\Yatsuzuka\20240401_2-128_CV_cycles_alpha_gamma\
	Host : 192.109.209.100
Device : SP-150e (SN .003411)
Address : 192.109.209.236
EC-Lab for windows v11.50 (software)
Internet server v11.50 (firmware)
Command interpretor v11.50 (firmware)
Electrode material :
Initial state :
Electrolyte :
Comments :
Electrode surface area : 0.001 cm2
Characteristic mass : 0.001 g
Equivalent Weight : 0.000 g/eq.
Density : 0.000 g/cm3
Volume (V) : 0.001 cm3
Cycle Definition : Charge/Discharge alternance
Mode                Single sine
E (V)               0.4500
vs.                 Ref
tE (h:m:s)          0:00:0.0000
record              0
dI                  0.000
unit dI             mA
dt (s)              0.000
fi                  500.000
unit fi             kHz
ff                  1.000
unit ff             Hz
Nd                  6
Points              per decade
spacing             Logarithmic
Va (mV)             10.0
pw                  0.10
Na                  2
corr                0
E range min (V)     -1.000
E range max (V)     1.000
I Range             Auto
Bandwidth           5
nc cycles           0
goto Ns'            0
nr cycles           0
inc. cycle          0

freq/Hz	Re(Z)/Ohm	-Im(Z)/Ohm	|Z|/Ohm	Phase(Z)/deg	time/s	<Ewe>/V	<I>/mA	Cs/uF	Cp/uF	cycle number	I Range	|Ewe|/V	|I|/A	Ns	(Q-Qo)/mA.h	Re(Y)/Ohm-1	Im(Y)/Ohm-1	|Y|/Ohm-1	Phase(Y)/deg	Re(C)/nF	Im(C)/nF	|C|/nF	Phase(C)/deg	Re(M)	Im(M)	|M|	Phase(M)/deg	Re(Permittivity)	Im(Permittivity)	|Permittivity|	Phase(Permittivity)/deg	Re(Resistivity)/Ohm.cm	Im(Resistivity)/Ohm.cm	|Resistivity|/Ohm.cm	Phase(Resistivity)/deg	Re(Conductivity)/mS/cm	Im(Conductivity)/mS/cm	|Conductivity|/mS/cm	Phase(Conductivity)/deg	Tan(Delta)	Loss Angle(Delta)/deg	dq/mA.h
500019	64.0772	18.6424	66.734	-16.2216	201.051	0.450367	0.000518831	0.0170739	0.00133242	1	11	0.0107544	0.000161153	0	6.54193e-07	0.0143883	0.00418607	0.0149849	16.2216	1.33242	4.57977	4.76965	-73.7784	0.0000000E+000	0.0000000E+000	0.0000000E+000	73.7784	0.0000000E+000	0.0000000E+000	0.0000000E+000	-73.7784	0.0000000E+000	0.0000000E+000	0.0000000E+000	-16.2216	0.0000000E+000	0.0000000E+000	0.0000000E+000	16.2216	3.43718	73.7784	6.54193e-07
231063	48.2145	0.504938	48.2171	-0.600022	201.895	0.450273	0.000520698	1.36412	0.000149598	1	11	0.0106614	0.000221112	0	3.7951e-07	0.0207384	0.000217188	0.0207395	0.600022	0.149598	14.2845	14.2853	-89.4	0.0000000E+000	0.0000000E+000	0.0000000E+000	89.4	0.0000000E+000	0.0000000E+000	0.0000000E+000	-89.4	0.0000000E+000	0.0000000E+000	0.0000000E+000	-0.600022	0.0000000E+000	0.0000000E+000	0.0000000E+000	0.600022	95.486	89.4	8.43135e-08
106786	44.1702	0.116905	44.1703	-0.151644	202.74	0.450284	0.000260887	12.7489	8.9305e-05	1	11	0.0105755	0.000239427	0	1.96688e-08	0.0226396	5.99199e-05	0.0226396	0.151644	0.0893038	33.7421	33.7423	-89.8484	0.0000000E+000	0.0000000E+000	0.0000000E+000	89.8484	0.0000000E+000	0.0000000E+000	0.0000000E+000	-89.8484	0.0000000E+000	0.0000000E+000	0.0000000E+000	-0.151644	0.0000000E+000	0.0000000E+000	0.0000000E+000	0.151644	377.83	89.8484	-2.22056e-07
49352.4	43.3904	0.0677259	43.3905	-0.08943	203.584	0.450291	-0.000174246	47.6165	0.000116005	1	11	0.0104802	0.000241533	0	-2.55767e-07	0.0230465	3.59721e-05	0.0230465	0.08943	0.116008	74.322	74.3221	-89.9106	0.0000000E+000	0.0000000E+000	0.0000000E+000	89.9106	0.0000000E+000	0.0000000E+000	0.0000000E+000	-89.9106	0.0000000E+000	0.0000000E+000	0.0000000E+000	-0.08943	0.0000000E+000	0.0000000E+000	0.0000000E+000	0.08943	640.677	89.9106	-1.7581e-08
22806.6	43.187	0.0981061	43.1871	-0.130156	204.428	0.45029	0.000109999	71.1319	0.000367069	1	11	0.0103745	0.000240222	0	-2.68697e-07	0.023155	5.26002e-05	0.023155	0.130156	0.367073	161.586	161.587	-89.8698	0.0000000E+000	0.0000000E+000	0.0000000E+000	89.8698	0.0000000E+000	0.0000000E+000	0.0000000E+000	-89.8698	0.0000000E+000	0.0000000E+000	0.0000000E+000	-0.130156	0.0000000E+000	0.0000000E+000	0.0000000E+000	0.130156	440.207	89.8698	1.25453e-07
10540.4	43.1307	0.11834	43.1309	-0.157205	205.273	0.450293	0.000109812	127.594	0.000960549	1	11	0.0101929	0.000236324	0	1.71491e-07	0.0231851	6.36144e-05	0.0231852	0.157205	0.960539	350.085	350.086	-89.8428	0.0000000E+000	0.0000000E+000	0.0000000E+000	89.8428	0.0000000E+000	0.0000000E+000	0.0000000E+000	-89.8428	0.0000000E+000	0.0000000E+000	0.0000000E+000	-0.157205	0.0000000E+000	0.0000000E+000	0.0000000E+000	0.157205	364.464	89.8428	-2.4677e-10
4871.56	43.112	0.195017	43.1124	-0.259175	206.264	0.450298	0.000356008	167.525	0.00342782	1	11	0.0104839	0.000243176	0	3.13594e-07	0.0231949	0.000104922	0.0231952	0.259175	3.42787	757.784	757.791	-89.7408	0.0000000E+000	0.0000000E+000	0.0000000E+000	89.7408	0.0000000E+000	0.0000000E+000	0.0000000E+000	-89.7408	0.0000000E+000	0.0000000E+000	0.0000000E+000	-0.259175	0.0000000E+000	0.0000000E+000	0.0000000E+000	0.259175	221.068	89.7408	4.09802e-08
2250.72	43.1462	0.357366	43.1477	-0.474551	207.195	0.450298	0.000212207	197.873	0.0135736	1	11	0.0108163	0.000250681	0	5.18893e-07	0.0231754	0.000191954	0.0231762	0.474551	13.5736	1638.8	1638.86	-89.5255	0.0000000E+000	0.0000000E+000	0.0000000E+000	89.5255	0.0000000E+000	0.0000000E+000	0.0000000E+000	-89.5255	0.0000000E+000	0.0000000E+000	0.0000000E+000	-0.474551	0.0000000E+000	0.0000000E+000	0.0000000E+000	0.474551	120.734	89.5255	-3.54271e-08
1040.33	43.2347	0.701389	43.2404	-0.929418	208.126	0.450293	5.23667e-05	218.117	0.0573889	1	11	0.0108957	0.000251979	0	4.32336e-07	0.0231235	0.000375128	0.0231265	0.929418	57.389	3537.54	3538	-89.0706	0.0000000E+000	0.0000000E+000	0.0000000E+000	89.0706	0.0000000E+000	0.0000000E+000	0.0000000E+000	-89.0706	0.0000000E+000	0.0000000E+000	0.0000000E+000	-0.929418	0.0000000E+000	0.0000000E+000	0.0000000E+000	0.929418	61.6415	89.0706	-2.14821e-08
480.769	43.31	1.41302	43.333	-1.86866	209.056	0.450299	-5.39453e-05	234.28	0.249112	1	11	0.0109078	0.000251719	0	3.78073e-07	0.0230648	0.000752509	0.0230771	1.86866	249.112	7635.43	7639.5	-88.1313	0.0000000E+000	0.0000000E+000	0.0000000E+000	88.1313	0.0000000E+000	0.0000000E+000	0.0000000E+000	-88.1313	0.0000000E+000	0.0000000E+000	0.0000000E+000	-1.86866	0.0000000E+000	0.0000000E+000	0.0000000E+000	1.86866	30.6506	88.1313	2.63726e-09
222.061	43.4783	2.81154	43.5692	-3.6999	209.98	0.450296	9.09744e-05	254.92	1.06153	1	11	0.0109126	0.000250465	0	4.98641e-07	0.0229042	0.00148111	0.022952	3.6999	1061.54	16415.8	16450.1	-86.3001	0.0000000E+000	0.0000000E+000	0.0000000E+000	86.3001	0.0000000E+000	0.0000000E+000	0.0000000E+000	-86.3001	0.0000000E+000	0.0000000E+000	0.0000000E+000	-3.6999	0.0000000E+000	0.0000000E+000	0.0000000E+000	3.6999	15.4642	86.3001	2.39457e-07
102.667	43.7518	5.77913	44.1318	-7.52458	210.917	0.450308	0.000235521	268.241	4.59987	1	11	0.0109178	0.000247391	0	2.78466e-07	0.0224642	0.00296728	0.0226594	7.52458	4599.87	34824.1	35126.6	-82.4754	0.0000000E+000	0.0000000E+000	0.0000000E+000	82.4754	0.0000000E+000	0.0000000E+000	0.0000000E+000	-82.4754	0.0000000E+000	0.0000000E+000	0.0000000E+000	-7.52458	0.0000000E+000	0.0000000E+000	0.0000000E+000	7.52458	7.57066	82.4754	-1.15704e-07
47.4443	44.194	12.0527	45.8081	-15.2549	211.828	0.450289	-5.37587e-05	278.324	19.268	1	11	0.0109175	0.000238332	0	1.22081e-07	0.021061	0.00574382	0.0218302	15.2549	19268	70650.5	73230.8	-74.7451	0.0000000E+000	0.0000000E+000	0.0000000E+000	74.7451	0.0000000E+000	0.0000000E+000	0.0000000E+000	-74.7451	0.0000000E+000	0.0000000E+000	0.0000000E+000	-15.2549	0.0000000E+000	0.0000000E+000	0.0000000E+000	15.2549	3.66673	74.7451	-1.60743e-07
21.9144	45.0821	25.1412	51.6186	-29.1474	212.695	0.450285	-0.000301447	288.871	68.5273	1	11	0.010908	0.000211319	0	-3.99258e-07	0.0169197	0.0094357	0.0193729	29.1474	68527.3	122880	140697	-60.8526	0.0000000E+000	0.0000000E+000	0.0000000E+000	60.8526	0.0000000E+000	0.0000000E+000	0.0000000E+000	-60.8526	0.0000000E+000	0.0000000E+000	0.0000000E+000	-29.1474	0.0000000E+000	0.0000000E+000	0.0000000E+000	29.1474	1.79316	60.8526	-4.61087e-07
10.1329	47.6986	52.6055	71.0105	-47.8006	213.624	0.450288	0.000116337	298.575	163.859	1	11	0.0109105	0.000153646	0	7.07525e-07	0.00945934	0.0104324	0.0140824	47.8006	163859	148575	221188	-42.1994	0.0000000E+000	0.0000000E+000	0.0000000E+000	42.1994	0.0000000E+000	0.0000000E+000	0.0000000E+000	-42.1994	0.0000000E+000	0.0000000E+000	0.0000000E+000	-47.8006	0.0000000E+000	0.0000000E+000	0.0000000E+000	47.8006	0.906724	42.1994	1.0423e-06
4.68375	51.2165	109.977	121.318	-65.0285	214.74	0.450306	0.000856093	308.975	253.908	1	12	0.0109148	8.9968e-05	0	2.96646e-07	0.00347983	0.00747223	0.00824279	65.0285	253908	118245	280092	-24.9715	0.0000000E+000	0.0000000E+000	0.0000000E+000	24.9715	0.0000000E+000	0.0000000E+000	0.0000000E+000	-24.9715	0.0000000E+000	0.0000000E+000	0.0000000E+000	-65.0285	0.0000000E+000	0.0000000E+000	0.0000000E+000	65.0285	0.465701	24.9715	5.22073e-07
2.16533	59.8875	230.226	237.888	-75.4191	216.453	0.450311	0.000778919	319.258	299.025	1	12	0.0109132	4.58753e-05	0	3.44429e-07	0.00105826	0.00406828	0.00420366	75.4191	299025	77783.8	308976	-14.5809	0.0000000E+000	0.0000000E+000	0.0000000E+000	14.5809	0.0000000E+000	0.0000000E+000	0.0000000E+000	-14.5809	0.0000000E+000	0.0000000E+000	0.0000000E+000	-75.4191	0.0000000E+000	0.0000000E+000	0.0000000E+000	75.4191	0.260125	14.5809	7.95515e-07
1.00006	80.8024	483.497	490.203	-80.5124	220.793	0.450311	0.000854227	329.153	320.21	1	13	0.0109156	2.22676e-05	0	2.13376e-06	0.000336258	0.00201207	0.00203997	80.5124	320210	53513.7	324651	-9.48763	0.0000000E+000	0.0000000E+000	0.0000000E+000	9.48763	0.0000000E+000	0.0000000E+000	0.0000000E+000	-9.48763	0.0000000E+000	0.0000000E+000	0.0000000E+000	-80.5124	0.0000000E+000	0.0000000E+000	0.0000000E+000	80.5124	0.167121	9.48763	3.95729e-07

File: 20240328_2-128_002_gamma_K-1_03_CVA_C02.mpt
EC-Lab ASCII FILE
Nb header lines : 66

Cyclic Voltammetry Advanced

Run on channel : 2 (SN 66414)
User :
CE vs. WE compliance from -10 V to 10 V
Electrode connection : standard
Potential control : Ewe
Ewe ctrl range : min = -1.00 V, max = 1.00 V
Safety Limits :
	Do not start on E overload
Acquisition started on : 04/01/2024 18:52:31.695
Loaded Setting File :  C:\Users\NakamuraT\Documents\EC-Lab\Data\Yatsuzuka\20240401_2-128_CV_cycles_alpha_gamma\20240328_2-128_001_alpha_K-1.mps
Saved on :
	File : 20240328_2-128_002_gamma_K-1_03_CVA_C02.mpr
	Directory : C:\Users\NakamuraT\Documents\EC-Lab\Data\Yatsuzuka\20240401_2-128_CV_cycles_alpha_gamma\
	Host : 192.109.209.100
Device : SP-150e (SN .003411)
Address : 192.109.209.236
EC-Lab for windows v11.50 (software)
Internet server v11.50 (firmware)
Command interpretor v11.50 (firmware)
Electrode material :
Initial state :
Electrolyte :
Comments :
Electrode surface area : 0.001 cm2
Characteristic mass : 0.001 g
Equivalent Weight : 0.000 g/eq.
Density : 0.000 g/cm3
Volume (V) : 0.001 cm3
Cycle Definition : Charge/Discharge alternance
Ei (V)              0.450
vs.                 Ref
ti (h:m:s)          0:00:10.0000
dti (s)             0.0000
dE/dt               5.000
dE/dt unit          mV/s
E1 (V)              0.700
vs.                 Ref
t1 (h:m:s)          0:00:0.0000
dt1 (s)             0.1000
Step percent        50
N                   10
E range min (V)     -1.000
E range max (V)     1.000
I Range             10 mA
I Range min         Unset
I Range max         Unset
I Range init        Unset
Bandwidth           5
E2 (V)              0.450
vs.                 Ref
t2 (h:m:s)          0:00:0.0000
dt2 (s)             0.1000
nc cycles           14
nr                  1
Reverse Scan        0
Ef (V)              0.000
vs.                 Eoc
tf (h:m:s)          0:00:0.0000
dtf (s)             0.1000

mode	ox/red	error	control changes	Ns changes	counter inc.	time/s	control/V	Ewe/V	<I>/mA	cycle number	(Q-Qo)/C	I Range	Ns	step time/s	P/W
2	0	0	0	0	0	230.912	0.449951	0.450333	-0.000795942	1	0.0000000E+000	11	0	0.000000000000000E+000	-3.58439e-07
2	1	0	0	0	0	243.65	0.513638	0.51389	0.00934522	1	5.42947e-05	11	0	12.6826	4.80241e-06
2	1	0	0	0	0	256.432	0.57755	0.577889	0.074243	1	0.000459941	11	0	25.465	4.29042e-05
2	1	0	1	0	0	269.215	0.641463	0.641768	0.390286	1	0.00302478	11	0	38.2475	0.000250473
2	1	0	0	0	0	281.781	0.695688	0.696029	0.960664	1	0.0118793	11	0	50.8138	0.00066865
2	1	0	1	0	0	294.563	0.631775	0.632088	0.260127	1	0.0191279	11	0	63.5963	0.000164423
2	1	0	1	0	0	307.346	0.567863	0.568152	0.0340115	1	0.0206249	11	0	76.3787	1.93237e-05
2	1	0	1	0	0	320.128	0.503951	0.504249	0.000846027	1	0.0207753	11	0	89.1611	4.26608e-07
2	1	0	1	0	1	332.676	0.458814	0.459049	0.00141653	2	0.020763	11	0	1.6977	6.50257e-07
2	1	0	1	0	1	345.459	0.522725	0.52301	0.00786136	2	0.0208078	11	0	14.4801	4.11157e-06
2	1	0	1	0	1	358.241	0.586637	0.586915	0.0676827	2	0.0211655	11	0	27.2625	3.9724e-05
2	1	0	0	0	1	371.024	0.65055	0.650822	0.400573	2	0.0236959	11	0	40.045	0.000260702
2	1	0	1	0	1	383.57	0.686701	0.687007	0.775919	2	0.0325854	11	0	52.5913	0.000533062
2	1	0	0	0	1	396.352	0.622788	0.623103	0.178514	2	0.0381121	11	0	65.3738	0.000111233
2	1	0	0	0	1	409.135	0.558876	0.559171	0.0201321	2	0.0390858	11	0	78.1562	1.12573e-05
2	1	0	1	0	1	421.917	0.494963	0.495259	-0.00061117	2	0.0391642	11	0	0.8988	-3.02687e-07
2	1	0	1	0	0	434.465	0.467801	0.468047	0.00148774	3	0.0391519	11	0	3.4952	6.96331e-07
2	1	0	1	0	0	447.248	0.531713	0.532018	0.00925444	3	0.0392031	11	0	16.2776	4.92352e-06
2	1	0	1	0	0	460.03	0.595626	0.595914	0.080077	3	0.0396264	11	0	29.0601	4.7719e-05
2	1	0	1	0	0	472.812	0.659537	0.6598	0.457011	3	0.0425599	11	0	41.8425	0.000301536
2	1	0	1	0	0	485.359	0.677712	0.678016	0.632112	3	0.0515874	11	0	54.3889	0.000428582
2	1	0	1	0	0	498.141	0.6138	0.614075	0.125726	3	0.0558462	11	0	67.1713	7.72051e-05
2	1	0	1	0	0	510.924	0.549889	0.55019	0.0122883	3	0.0565038	11	0	79.9537	6.76093e-06
2	0	0	0	0	0	523.706	0.485976	0.486214	-0.00140987	3	0.0565426	11	0	3.1956	-6.85501e-07
2	1	0	1	0	1	536.254	0.476788	0.477082	0.00168736	4	0.0565344	11	0	5.2927	8.05011e-07
2	1	0	1	0	1	549.037	0.540701	0.540998	0.0114102	4	0.0565965	11	0	18.0752	6.1729e-06
2	1	0	1	0	1	561.819	0.604613	0.604919	0.0981947	4	0.0571195	11	0	30.8576	5.93998e-05
2	1	0	1	0	1	574.601	0.668525	0.668809	0.525359	4	0.0605804	11	0	43.64	0.000351365
2	1	0	1	0	1	587.148	0.668725	0.668987	0.503544	4	0.0694047	11	0	56.1864	0.000336865
2	1	0	1	0	1	599.93	0.604812	0.605042	0.0879493	4	0.0726329	11	0	68.9689	5.3213e-05
2	1	0	1	0	1	612.713	0.5409	0.541135	0.00717768	4	0.0730749	11	0	81.7513	3.88409e-06
2	0	0	1	0	1	625.495	0.476989	0.477241	-0.00186241	4	0.073088	11	0	5.792	-8.88816e-07
2	1	0	1	0	0	638.043	0.485777	0.48609	0.0018857	5	0.0730847	11	0	7.1453	9.1662e-07
2	1	0	1	0	0	650.825	0.549689	0.549957	0.0142903	5	0.0731611	11	0	19.9277	7.85903e-06
2	1	0	1	0	0	663.608	0.6136	0.613847	0.122011	5	0.0738187	11	0	32.7101	7.48962e-05
2	1	0	1	0	0	676.39	0.677512	0.677751	0.604423	5	0.0779238	11	0	45.4925	0.000409649
2	1	0	1	0	0	688.937	0.659737	0.660047	0.399039	5	0.0862842	11	0	58.0389	0.000263385
2	1	0	1	0	0	701.719	0.595825	0.596075	0.0612359	5	0.0887222	11	0	70.8214	3.65012e-05
2	1	0	1	0	0	714.502	0.531913	0.532199	0.00399431	5	0.0890176	11	0	83.6038	2.12577e-06
2	0	0	1	0	0	727.284	0.468	0.468238	-0.00215592	5	0.0890154	11	0	7.3899	-1.00948e-06
2	1	0	0	0	1	739.832	0.494764	0.495038	0.00243258	6	0.0890196	11	0	8.8878	1.20422e-06
2	1	0	0	0	1	752.614	0.558676	0.558945	0.018441	6	0.0891173	11	0	21.6702	1.03075e-05
2	1	0	1	0	1	765.397	0.622589	0.622845	0.152244	6	0.0899524	11	0	34.4527	9.48247e-05
2	1	0	1	0	1	778.179	0.6865	0.686764	0.692747	6	0.0948032	11	0	47.2351	0.000475754
2	1	0	1	0	1	790.726	0.650749	0.651047	0.304814	6	0.102356	11	0	59.7815	0.000198448
2	1	0	1	0	1	803.508	0.586837	0.587124	0.042129	6	0.104147	11	0	72.5639	2.47349e-05
2	0	0	1	0	1	816.29	0.522926	0.523194	0.00196562	6	0.104342	11	0	85.3463	1.0284e-06
2	1	0	1	0	1	829.073	0.459013	0.459275	-0.00236843	6	0.10433	11	0	9.8865	-1.08776e-06
2	1	0	1	0	0	841.621	0.503751	0.504027	0.00288016	7	0.104342	11	0	10.6853	1.45168e-06
2	1	0	1	0	0	854.403	0.567663	0.567966	0.0240905	7	0.104467	11	0	23.4677	1.36826e-05
2	1	0	0	0	0	867.186	0.631576	0.631884	0.189523	7	0.105529	11	0	36.2502	0.000119757
2	1	0	0	0	0	879.968	0.695488	0.695761	0.783979	7	0.111228	11	0	49.0326	0.000545462
2	1	0	0	0	0	892.515	0.641762	0.642076	0.231178	7	0.117729	11	0	61.579	0.000148434
2	1	0	0	0	0	905.297	0.57785	0.578159	0.0288125	7	0.119036	11	0	74.3614	1.66582e-05
2	1	0	1	0	0	918.079	0.513937	0.514182	0.000504634	7	0.11916	11	0	87.1439	2.59474e-07
2	0	0	1	0	0	930.837	0.45015	0.45046	-0.00344789	7	0.11914	11	0	11.6591	-1.55314e-06
2	1	0	1	0	1	943.41	0.51274	0.513017	0.0036142	8	0.119162	11	0	12.4829	1.85415e-06
2	1	0	1	0	1	956.192	0.576652	0.576958	0.0314308	8	0.119325	11	0	25.2653	1.81343e-05
2	1	0	1	0	1	968.975	0.640563	0.640881	0.233742	8	0.120668	11	0	38.0477	0.000149801
2	1	0	1	0	1	981.521	0.696686	0.697035	0.778142	8	0.127073	11	0	50.5941	0.000542392
2	1	0	1	0	1	994.303	0.632774	0.63304	0.172354	8	0.132526	11	0	63.3765	0.000109107
2	1	0	0	0	1	1007.09	0.568862	0.569148	0.0196357	8	0.133469	11	0	76.159	1.11756e-05
2	0	0	0	0	1	1019.87	0.50495	0.505195	-0.000407334	8	0.133547	11	0	0.8988	-2.05783e-07
[...]
2	1	0	1	0	1	1197.88	0.614799	0.615125	0.0935433	10	0.160643	11	0	66.9716	5.75408e-05
2	1	0	1	0	1	1210.66	0.550887	0.551158	0.00825522	10	0.161122	11	0	79.754	4.54993e-06
2	1	0	1	0	1	1223.45	0.486974	0.487273	-0.00157935	10	0.161142	11	0	4.7935	-7.69574e-07
2	1	0	0	0	0	1235.99	0.47579	0.476089	0.0012476	11	0.161131	11	0	5.093	5.93969e-07
2	1	0	1	0	0	1248.78	0.539703	0.539974	0.00796024	11	0.161176	11	0	17.8755	4.29832e-06
2	1	0	1	0	0	1261.56	0.603615	0.603864	0.0700805	11	0.161543	11	0	30.6579	4.23191e-05
2	1	0	1	0	0	1274.34	0.667527	0.667833	0.41485	11	0.164163	11	0	43.4403	0.000277051
2	1	0	1	0	0	1286.89	0.669723	0.670059	0.414842	11	0.171482	11	0	55.9867	0.000277968
2	1	0	1	0	0	1299.67	0.605811	0.606061	0.0670319	11	0.174056	11	0	68.7691	4.06254e-05
2	1	0	1	0	0	1312.45	0.541899	0.542227	0.0049166	11	0.174388	11	0	81.5515	2.66591e-06
2	0	0	1	0	0	1325.24	0.477987	0.47821	-0.00196766	11	0.174391	11	0	6.8905	-9.40956e-07
2	1	0	1	0	1	1337.78	0.484777	0.485037	0.00158339	12	0.174386	11	0	6.7906	7.68005e-07
2	1	0	0	0	1	1350.57	0.54869	0.548997	0.0104454	12	0.174442	11	0	19.5731	5.73448e-06
2	1	0	0	0	1	1363.35	0.612602	0.612899	0.0907116	12	0.174926	11	0	32.3555	5.55971e-05
2	1	0	0	0	1	1376.13	0.676514	0.676809	0.49105	12	0.178139	11	0	45.1379	0.000332347
2	1	0	0	0	1	1388.68	0.660736	0.661017	0.326342	12	0.18516	11	0	57.6843	0.000215717
2	1	0	1	0	1	1401.46	0.596823	0.597071	0.0480124	12	0.187109	11	0	70.4668	2.86668e-05
2	1	0	1	0	1	1414.24	0.532911	0.533202	0.00267447	12	0.187338	11	0	83.2492	1.42603e-06
2	0	0	1	0	1	1427.02	0.468999	0.469317	-0.0022184	12	0.18733	11	0	8.5882	-1.04113e-06
2	1	0	1	0	0	1439.57	0.493766	0.494069	0.00189134	13	0.187332	11	0	8.6881	9.34451e-07
2	1	0	1	0	0	1452.35	0.557677	0.557913	0.0138749	13	0.187406	11	0	21.4705	7.74096e-06
2	1	0	1	0	0	1465.14	0.621589	0.621885	0.116589	13	0.188039	11	0	34.2529	7.25049e-05
2	1	0	1	0	0	1477.92	0.685501	0.685818	0.575	13	0.19194	11	0	47.0353	0.000394345
2	1	0	1	0	0	1490.47	0.651749	0.652014	0.252189	13	0.198371	11	0	59.5817	0.000164431
2	1	0	0	0	0	1503.25	0.587836	0.588187	0.0342123	13	0.199839	11	0	72.3642	2.01232e-05
2	1	0	0	0	0	1516.03	0.523924	0.524145	0.00117244	13	0.199992	11	0	85.1466	6.14531e-07
2	0	0	1	0	0	1528.81	0.460011	0.460274	-0.0023702	13	0.199977	11	0	10.5855	-1.09094e-06
2	1	0	1	0	1	1541.36	0.502753	0.502976	0.00236479	14	0.199987	11	0	10.4856	1.18943e-06
2	1	0	1	0	1	1554.14	0.566665	0.566936	0.0184087	14	0.200083	11	0	23.268	1.04366e-05
2	1	0	1	0	1	1566.93	0.630578	0.630846	0.14887	14	0.200907	11	0	36.0505	9.3914e-05
2	1	0	1	0	1	1579.71	0.694489	0.694781	0.666784	14	0.205602	11	0	48.8329	0.000463268
2	1	0	1	0	1	1592.25	0.64276	0.643051	0.193049	14	0.211211	11	0	61.3793	0.00012414
2	1	0	1	0	1	1605.04	0.578848	0.579193	0.023622	14	0.21229	11	0	74.1617	1.36817e-05
2	0	0	1	0	1	1617.82	0.514937	0.515166	4.75313e-05	14	0.212389	11	0	0.000000000000000E+000	2.44865e-08
2	0	0	0	0	1	1630.6	0.451024	0.45126	-0.0024721	14	0.212368	11	0	12.0834	-1.11556e-06
2	1	0	1	0	0	1643.15	0.51174	0.51205	0.00305865	15	0.212387	11	0	12.2831	1.56618e-06
2	1	0	1	0	0	1655.93	0.575653	0.575895	0.0246096	15	0.212515	11	0	25.0656	1.41726e-05
2	1	0	1	0	0	1668.71	0.639565	0.639755	0.185832	15	0.213573	11	0	37.848	0.000118887
2	1	0	1	0	0	1681.26	0.697685	0.697927	0.673451	15	0.218859	11	0	50.3944	0.00047002
2	1	0	1	0	0	1694.04	0.633773	0.63401	0.144569	15	0.223498	11	0	63.1768	9.16581e-05
2	1	0	1	0	0	1706.83	0.569861	0.57018	0.0160721	15	0.224285	11	0	75.9592	9.16397e-06
2	0	0	1	0	0	1719.61	0.505948	0.506224	-0.000626951	15	0.224345	11	0	1.7976	-3.17378e-07
2	0	0	0	0	0	1730.79	0.450001	0.450238	-0.00138275	15	0.224325	11	0	12.9823	-6.22565e-07