Folder: SI_for_publications/ACS_Catal_2026/Figures_Na_K/main_figures/data/EC/20240401_2-128_CV_cycles_alpha_gamma/gamma (part 3)

File: 20240328_2-128_006_gamma_K-2_02_PEIS_C02.mpt
EC-Lab ASCII FILE
Nb header lines : 63

Potentio Electrochemical Impedance Spectroscopy

Run on channel : 2 (SN 66414)
User :
CE vs. WE compliance from -10 V to 10 V
Electrode connection : standard
Potential control : Ewe
Ewe ctrl range : min = -1.00 V, max = 1.00 V
Safety Limits :
	Do not start on E overload
Acquisition started on : 04/01/2024 19:59:40.490
Loaded Setting File :  C:\Users\NakamuraT\Documents\EC-Lab\Data\Yatsuzuka\20240401_2-128_CV_cycles_alpha_gamma\20240328_2-128_001_alpha_K-1.mps
Saved on :
	File : 20240328_2-128_006_gamma_K-2_02_PEIS_C02.mpr
	Directory : C:\Users\NakamuraT\Documents\EC-Lab\Data\Yatsuzuka\20240401_2-128_CV_cycles_alpha_gamma\
	Host : 192.109.209.100
Device : SP-150e (SN .003411)
Address : 192.109.209.236
EC-Lab for windows v11.50 (software)
Internet server v11.50 (firmware)
Command interpretor v11.50 (firmware)
Electrode material :
Initial state :
Electrolyte :
Comments :
Electrode surface area : 0.001 cm2
Characteristic mass : 0.001 g
Equivalent Weight : 0.000 g/eq.
Density : 0.000 g/cm3
Volume (V) : 0.001 cm3
Cycle Definition : Charge/Discharge alternance
Mode                Single sine
E (V)               0.4500
vs.                 Ref
tE (h:m:s)          0:00:0.0000
record              0
dI                  0.000
unit dI             mA
dt (s)              0.000
fi                  500.000
unit fi             kHz
ff                  1.000
unit ff             Hz
Nd                  6
Points              per decade
spacing             Logarithmic
Va (mV)             10.0
pw                  0.10
Na                  2
corr                0
E range min (V)     -1.000
E range max (V)     1.000
I Range             Auto
Bandwidth           5
nc cycles           0
goto Ns'            0
nr cycles           0
inc. cycle          0

freq/Hz	Re(Z)/Ohm	-Im(Z)/Ohm	|Z|/Ohm	Phase(Z)/deg	time/s	<Ewe>/V	<I>/mA	Cs/uF	Cp/uF	cycle number	I Range	|Ewe|/V	|I|/A	Ns	(Q-Qo)/mA.h	Re(Y)/Ohm-1	Im(Y)/Ohm-1	|Y|/Ohm-1	Phase(Y)/deg	Re(C)/nF	Im(C)/nF	|C|/nF	Phase(C)/deg	Re(M)	Im(M)	|M|	Phase(M)/deg	Re(Permittivity)	Im(Permittivity)	|Permittivity|	Phase(Permittivity)/deg	Re(Resistivity)/Ohm.cm	Im(Resistivity)/Ohm.cm	|Resistivity|/Ohm.cm	Phase(Resistivity)/deg	Re(Conductivity)/mS/cm	Im(Conductivity)/mS/cm	|Conductivity|/mS/cm	Phase(Conductivity)/deg	Tan(Delta)	Loss Angle(Delta)/deg	dq/mA.h
500019	45.1546	11.2861	46.5437	-14.0332	201.391	0.45046	-0.000871987	0.0282026	0.00165827	1	11	0.0101398	0.000217856	0	5.62651e-07	0.020844	0.00520982	0.0214852	14.0332	1.65827	6.63459	6.83869	-75.9668	0.0000000E+000	0.0000000E+000	0.0000000E+000	75.9668	0.0000000E+000	0.0000000E+000	0.0000000E+000	-75.9668	0.0000000E+000	0.0000000E+000	0.0000000E+000	-14.0332	0.0000000E+000	0.0000000E+000	0.0000000E+000	14.0332	4.0009	75.9668	5.62651e-07
231063	29.2057	-0.715429	29.2144	1.40325	202.675	0.4503	-0.0045123	-0.962772	-0.000577382	1	10	0.00990025	0.000338882	0	-8.07165e-08	0.0342194	-0.000838248	0.0342297	-1.40325	-0.577381	23.5702	23.5773	-91.4033	0.0000000E+000	0.0000000E+000	0.0000000E+000	91.4033	0.0000000E+000	0.0000000E+000	0.0000000E+000	-91.4033	0.0000000E+000	0.0000000E+000	0.0000000E+000	1.40325	0.0000000E+000	0.0000000E+000	0.0000000E+000	-1.40325	40.8225	88.5967	-3.9832e-07
106786	26.0534	-0.137421	26.0538	0.302209	203.519	0.45031	-0.00500324	-10.8456	-0.000301728	1	10	0.0106836	0.000410059	0	-2.13478e-06	0.0383816	-0.000202447	0.0383822	-0.302209	-0.301728	57.2042	57.205	-90.3022	0.0000000E+000	0.0000000E+000	0.0000000E+000	90.3022	0.0000000E+000	0.0000000E+000	0.0000000E+000	-90.3022	0.0000000E+000	0.0000000E+000	0.0000000E+000	0.302209	0.0000000E+000	0.0000000E+000	0.0000000E+000	-0.302209	189.588	89.6978	-8.12816e-07
49352.4	25.5348	0.0194119	25.5348	-0.043557	204.363	0.450315	-0.00477364	166.129	9.60096e-05	1	10	0.0104241	0.000408231	0	-3.54292e-06	0.0391622	2.97716e-05	0.0391622	0.043557	0.0960079	126.293	126.293	-89.9564	0.0000000E+000	0.0000000E+000	0.0000000E+000	89.9564	0.0000000E+000	0.0000000E+000	0.0000000E+000	-89.9564	0.0000000E+000	0.0000000E+000	0.0000000E+000	-0.043557	0.0000000E+000	0.0000000E+000	0.0000000E+000	0.043557	1315.42	89.9564	-7.76239e-07
22806.6	25.4611	0.0489859	25.4611	-0.110234	205.207	0.450317	-0.00504617	142.459	0.000527322	1	10	0.0102506	0.000402598	0	-5.00029e-06	0.0392755	7.55641e-05	0.0392756	0.110234	0.527336	274.083	274.083	-89.8898	0.0000000E+000	0.0000000E+000	0.0000000E+000	89.8898	0.0000000E+000	0.0000000E+000	0.0000000E+000	-89.8898	0.0000000E+000	0.0000000E+000	0.0000000E+000	-0.110234	0.0000000E+000	0.0000000E+000	0.0000000E+000	0.110234	519.764	89.8898	-4.65761e-07
10540.4	25.421	0.107395	25.4212	-0.242055	205.916	0.450314	-0.00544005	140.598	0.00250933	1	10	0.0106349	0.000418347	0	-6.44203e-06	0.0393369	0.000166186	0.0393373	0.242055	2.50936	593.97	593.975	-89.7579	0.0000000E+000	0.0000000E+000	0.0000000E+000	89.7579	0.0000000E+000	0.0000000E+000	0.0000000E+000	-89.7579	0.0000000E+000	0.0000000E+000	0.0000000E+000	-0.242055	0.0000000E+000	0.0000000E+000	0.0000000E+000	0.242055	236.704	89.7579	-3.14774e-07
4871.56	25.4468	0.216306	25.4477	-0.487022	206.962	0.45034	-0.00542885	151.037	0.0109125	1	10	0.010068	0.000395636	0	-8.80096e-06	0.0392949	0.00033402	0.0392963	0.487022	10.9125	1283.77	1283.82	-89.513	0.0000000E+000	0.0000000E+000	0.0000000E+000	89.513	0.0000000E+000	0.0000000E+000	0.0000000E+000	-89.513	0.0000000E+000	0.0000000E+000	0.0000000E+000	-0.487022	0.0000000E+000	0.0000000E+000	0.0000000E+000	0.487022	117.642	89.513	-1.82291e-06
2250.72	25.4497	0.446394	25.4536	-1.00488	207.892	0.450345	-0.00534858	158.409	0.0487214	1	10	0.0101452	0.000398576	0	-1.00892e-05	0.0392812	0.000689003	0.0392872	1.00488	48.7215	2777.69	2778.11	-88.9951	0.0000000E+000	0.0000000E+000	0.0000000E+000	88.9951	0.0000000E+000	0.0000000E+000	0.0000000E+000	-88.9951	0.0000000E+000	0.0000000E+000	0.0000000E+000	-1.00488	0.0000000E+000	0.0000000E+000	0.0000000E+000	1.00488	57.0116	88.9951	-7.88624e-07
1040.33	25.5235	0.913539	25.5398	-2.04986	208.822	0.450339	-0.00544751	167.464	0.214259	1	10	0.0101679	0.00039812	0	-1.19315e-05	0.0391295	0.00140053	0.0391546	2.04986	214.26	5986.21	5990.05	-87.9501	0.0000000E+000	0.0000000E+000	0.0000000E+000	87.9501	0.0000000E+000	0.0000000E+000	0.0000000E+000	-87.9501	0.0000000E+000	0.0000000E+000	0.0000000E+000	-2.04986	0.0000000E+000	0.0000000E+000	0.0000000E+000	2.04986	27.9391	87.9501	-9.47043e-07
480.769	25.6589	1.82131	25.7234	-4.06015	209.752	0.450334	-0.00618486	181.76	0.911192	1	10	0.0101715	0.000395416	0	-1.34732e-05	0.0387775	0.00275249	0.038875	4.06015	911.193	12837	12869.3	-85.9399	0.0000000E+000	0.0000000E+000	0.0000000E+000	85.9399	0.0000000E+000	0.0000000E+000	0.0000000E+000	-85.9399	0.0000000E+000	0.0000000E+000	0.0000000E+000	-4.06015	0.0000000E+000	0.0000000E+000	0.0000000E+000	4.06015	14.0881	85.9399	-7.69645e-07
222.061	25.8663	3.65126	26.1227	-8.03474	210.928	0.450327	-0.000736947	196.293	3.8349	1	11	0.0101888	0.000390036	0	-1.45101e-05	0.0379051	0.00535065	0.0382808	8.03474	3834.9	27167.2	27436.6	-81.9653	0.0000000E+000	0.0000000E+000	0.0000000E+000	81.9653	0.0000000E+000	0.0000000E+000	0.0000000E+000	-81.9653	0.0000000E+000	0.0000000E+000	0.0000000E+000	-8.03474	0.0000000E+000	0.0000000E+000	0.0000000E+000	8.03474	7.0842	81.9653	-9.79448e-08
102.667	26.2128	7.47452	27.2577	-15.9154	211.865	0.450334	-0.000780964	207.398	15.5953	1	11	0.010192	0.000373914	0	-1.51219e-05	0.0352806	0.0100602	0.0366869	15.9154	15595.3	54692	56872	-74.0846	0.0000000E+000	0.0000000E+000	0.0000000E+000	74.0846	0.0000000E+000	0.0000000E+000	0.0000000E+000	-74.0846	0.0000000E+000	0.0000000E+000	0.0000000E+000	-15.9154	0.0000000E+000	0.0000000E+000	0.0000000E+000	15.9154	3.50696	74.0846	-3.40132e-07
47.4443	26.8128	15.4625	30.9518	-29.9713	212.776	0.450312	-0.000974752	216.949	54.1431	1	11	0.0101834	0.00032901	0	-1.56769e-05	0.0279879	0.0161401	0.0323083	29.9713	54143.1	93887.2	108380	-60.0287	0.0000000E+000	0.0000000E+000	0.0000000E+000	60.0287	0.0000000E+000	0.0000000E+000	0.0000000E+000	-60.0287	0.0000000E+000	0.0000000E+000	0.0000000E+000	-29.9713	0.0000000E+000	0.0000000E+000	0.0000000E+000	29.9713	1.73406	60.0287	-3.75789e-07
21.9144	28.0635	32.19	42.7054	-48.9178	213.644	0.450315	-0.00149382	225.616	128.187	1	11	0.010175	0.000238261	0	-1.65885e-05	0.0153878	0.0176504	0.0234162	48.9178	128187	111755	170062	-41.0822	0.0000000E+000	0.0000000E+000	0.0000000E+000	41.0822	0.0000000E+000	0.0000000E+000	0.0000000E+000	-41.0822	0.0000000E+000	0.0000000E+000	0.0000000E+000	-48.9178	0.0000000E+000	0.0000000E+000	0.0000000E+000	48.9178	0.871809	41.0822	-8.18376e-07
10.1329	30.3041	67.4695	73.9626	-65.8127	214.571	0.45032	-0.00114355	232.797	193.717	1	11	0.0101822	0.000137667	0	-1.59775e-05	0.00553958	0.0123334	0.0135203	65.8127	193717	87008.3	212360	-24.1873	0.0000000E+000	0.0000000E+000	0.0000000E+000	24.1873	0.0000000E+000	0.0000000E+000	0.0000000E+000	-24.1873	0.0000000E+000	0.0000000E+000	0.0000000E+000	-65.8127	0.0000000E+000	0.0000000E+000	0.0000000E+000	65.8127	0.449152	24.1873	7.08356e-07
4.68375	35.2734	141.565	145.893	-76.0087	215.621	0.450339	0.000291739	240.032	226.001	1	12	0.0101884	6.98345e-05	0	-1.70251e-05	0.00165721	0.00665096	0.00685432	76.0087	226001	56312.2	232911	-13.9913	0.0000000E+000	0.0000000E+000	0.0000000E+000	13.9913	0.0000000E+000	0.0000000E+000	0.0000000E+000	-13.9913	0.0000000E+000	0.0000000E+000	0.0000000E+000	-76.0087	0.0000000E+000	0.0000000E+000	0.0000000E+000	76.0087	0.249168	13.9913	-1.02071e-06
2.16533	45.313	294.825	298.287	-81.2623	217.335	0.45034	0.000162242	249.305	243.552	1	12	0.0101809	3.41312e-05	0	-1.60669e-05	0.000509276	0.00331356	0.00335247	81.2623	243552	37432.6	246412	-8.73766	0.0000000E+000	0.0000000E+000	0.0000000E+000	8.73766	0.0000000E+000	0.0000000E+000	0.0000000E+000	-8.73766	0.0000000E+000	0.0000000E+000	0.0000000E+000	-81.2623	0.0000000E+000	0.0000000E+000	0.0000000E+000	81.2623	0.153694	8.73767	7.89263e-07
1.00006	67.3212	619.293	622.942	-83.7959	221.675	0.450343	0.000259579	256.978	253.977	1	13	0.0101798	1.63414e-05	0	-1.61592e-05	0.000173483	0.00159588	0.00160529	83.7959	253977	27608.9	255473	-6.20406	0.0000000E+000	0.0000000E+000	0.0000000E+000	6.20406	0.0000000E+000	0.0000000E+000	0.0000000E+000	-6.20406	0.0000000E+000	0.0000000E+000	0.0000000E+000	-83.7959	0.0000000E+000	0.0000000E+000	0.0000000E+000	83.7959	0.108707	6.20407	-3.71876e-07

File: 20240328_2-128_006_gamma_K-2_03_CVA_C02.mpt
EC-Lab ASCII FILE
Nb header lines : 66

Cyclic Voltammetry Advanced

Run on channel : 2 (SN 66414)
User :
CE vs. WE compliance from -10 V to 10 V
Electrode connection : standard
Potential control : Ewe
Ewe ctrl range : min = -1.00 V, max = 1.00 V
Safety Limits :
	Do not start on E overload
Acquisition started on : 04/01/2024 19:59:40.490
Loaded Setting File :  C:\Users\NakamuraT\Documents\EC-Lab\Data\Yatsuzuka\20240401_2-128_CV_cycles_alpha_gamma\20240328_2-128_001_alpha_K-1.mps
Saved on :
	File : 20240328_2-128_006_gamma_K-2_03_CVA_C02.mpr
	Directory : C:\Users\NakamuraT\Documents\EC-Lab\Data\Yatsuzuka\20240401_2-128_CV_cycles_alpha_gamma\
	Host : 192.109.209.100
Device : SP-150e (SN .003411)
Address : 192.109.209.236
EC-Lab for windows v11.50 (software)
Internet server v11.50 (firmware)
Command interpretor v11.50 (firmware)
Electrode material :
Initial state :
Electrolyte :
Comments :
Electrode surface area : 0.001 cm2
Characteristic mass : 0.001 g
Equivalent Weight : 0.000 g/eq.
Density : 0.000 g/cm3
Volume (V) : 0.001 cm3
Cycle Definition : Charge/Discharge alternance
Ei (V)              0.450
vs.                 Ref
ti (h:m:s)          0:00:10.0000
dti (s)             0.0000
dE/dt               5.000
dE/dt unit          mV/s
E1 (V)              0.700
vs.                 Ref
t1 (h:m:s)          0:00:0.0000
dt1 (s)             0.1000
Step percent        50
N                   10
E range min (V)     -1.000
E range max (V)     1.000
I Range             10 mA
I Range min         Unset
I Range max         Unset
I Range init        Unset
Bandwidth           5
E2 (V)              0.450
vs.                 Ref
t2 (h:m:s)          0:00:0.0000
dt2 (s)             0.1000
nc cycles           14
nr                  1
Reverse Scan        0
Ef (V)              0.000
vs.                 Eoc
tf (h:m:s)          0:00:0.0000
dtf (s)             0.1000

mode	ox/red	error	control changes	Ns changes	counter inc.	time/s	control/V	Ewe/V	<I>/mA	cycle number	(Q-Qo)/C	I Range	Ns	step time/s	P/W
2	0	0	0	0	0	231.794	0.449953	0.450351	-0.0020692	1	0.0000000E+000	11	0	0.000000000000000E+000	-9.31864e-07
2	1	0	0	0	0	244.532	0.51364	0.513963	0.00257988	1	1.89067e-05	11	0	12.6826	1.32596e-06
2	1	0	0	0	0	257.314	0.577552	0.577866	0.0224496	1	0.000133519	11	0	25.465	1.29729e-05
2	1	0	1	0	0	270.097	0.641465	0.641773	0.206634	1	0.00124502	11	0	38.2475	0.000132612
2	1	0	1	0	0	282.663	0.695689	0.696042	0.789889	1	0.00764394	11	0	50.8135	0.000549796
2	1	0	1	0	0	295.445	0.631778	0.632055	0.139253	1	0.0126806	11	0	63.5959	8.80153e-05
2	1	0	1	0	0	308.227	0.567866	0.568223	0.0122872	1	0.0133942	11	0	76.3783	6.98189e-06
2	0	0	1	0	0	321.01	0.503954	0.504247	-0.0012672	1	0.0134293	11	0	3.3953	-6.38984e-07
2	1	0	1	0	1	333.558	0.458816	0.459099	0.000529484	2	0.0134065	11	0	1.498	2.43086e-07
2	1	0	1	0	1	346.341	0.522728	0.523021	0.00271517	2	0.013425	11	0	14.2804	1.42009e-06
2	1	0	1	0	1	359.123	0.58664	0.586966	0.0301888	2	0.013572	11	0	27.0628	1.77198e-05
2	1	0	1	0	1	371.906	0.650552	0.650871	0.26159	2	0.0150166	11	0	39.8452	0.000170261
2	1	0	1	0	1	384.452	0.686702	0.687043	0.633176	2	0.0221241	11	0	52.3913	0.00043502
2	1	0	1	0	1	397.234	0.62279	0.623141	0.103214	2	0.0260483	11	0	65.1737	6.43169e-05
2	1	0	1	0	1	410.017	0.558878	0.559216	0.00781683	2	0.0265622	11	0	77.9561	4.3713e-06
2	0	0	1	0	1	422.799	0.494966	0.495272	-0.00164961	2	0.0265769	11	0	5.093	-8.17004e-07
2	1	0	1	0	0	435.348	0.467803	0.468159	0.000965172	3	0.02656	11	0	3.5502	4.51854e-07
2	1	0	1	0	0	448.13	0.531715	0.532066	0.00402025	3	0.0265847	11	0	16.3326	2.13904e-06
2	1	0	1	0	0	460.912	0.595628	0.596011	0.0427133	3	0.0267906	11	0	29.1151	2.54576e-05
2	1	0	1	0	0	473.695	0.65954	0.659863	0.332577	3	0.0286921	11	0	41.8975	0.000219455
2	1	0	1	0	0	486.241	0.677715	0.678039	0.506464	3	0.0362277	11	0	54.4435	0.000343402
2	1	0	1	0	0	499.023	0.613803	0.614123	0.0765102	3	0.0392765	11	0	67.2259	4.69867e-05
2	1	0	0	0	0	511.806	0.54989	0.550219	0.00461716	3	0.0396436	11	0	80.0084	2.54045e-06
2	1	0	0	0	0	524.588	0.485978	0.486287	-0.00164441	3	0.0396451	11	0	7.0903	-7.99656e-07
2	1	0	1	0	1	537.137	0.476791	0.477111	0.00126309	4	0.039634	11	0	5.2927	6.02634e-07
2	1	0	1	0	1	549.919	0.540703	0.541062	0.00568762	4	0.0396663	11	0	18.0751	3.07735e-06
2	1	0	0	0	1	562.702	0.604615	0.604988	0.0593234	4	0.0399556	11	0	30.8576	3.589e-05
2	1	0	0	0	1	575.484	0.668527	0.668818	0.418163	4	0.0424371	11	0	43.64	0.000279675
2	1	0	1	0	1	588.03	0.668727	0.669046	0.401524	4	0.0500752	11	0	56.1861	0.000268638
2	1	0	1	0	1	600.812	0.604815	0.605146	0.0565049	4	0.0524293	11	0	68.9685	3.41937e-05
2	1	0	1	0	1	613.595	0.540903	0.541236	0.00283791	4	0.0526867	11	0	81.7509	1.53598e-06
2	0	0	1	0	1	626.377	0.476991	0.477266	-0.00185974	4	0.0526795	11	0	8.4883	-8.87593e-07
2	1	0	1	0	0	638.926	0.485779	0.486089	0.00161569	5	0.0526753	11	0	7.1453	7.85371e-07
2	1	0	1	0	0	651.708	0.549691	0.550039	0.007304	5	0.0527175	11	0	19.9277	4.01748e-06
2	1	0	1	0	0	664.491	0.613603	0.613908	0.0814834	5	0.053123	11	0	32.7101	5.00234e-05
2	1	0	1	0	0	677.273	0.677515	0.677887	0.519148	5	0.0563255	11	0	45.4925	0.000351924
2	1	0	1	0	0	689.819	0.659739	0.660075	0.316726	5	0.0637515	11	0	58.0386	0.000209063
2	1	0	1	0	0	702.602	0.595827	0.596183	0.0406154	5	0.0655587	11	0	70.821	2.42142e-05
2	0	0	1	0	0	715.384	0.531915	0.532224	0.00107238	5	0.0657367	11	0	83.6034	5.70748e-07
2	0	0	1	0	0	728.166	0.468003	0.4683	-0.00218724	5	0.0657238	11	0	9.9863	-1.02428e-06
2	1	0	1	0	1	740.715	0.494766	0.495031	0.00176236	6	0.0657278	11	0	8.7879	8.7242e-07
2	1	0	1	0	1	753.497	0.558678	0.558983	0.0105335	6	0.0657844	11	0	21.5703	5.88806e-06
2	1	0	1	0	1	766.28	0.62259	0.622847	0.111396	6	0.0663506	11	0	34.3527	6.93827e-05
2	1	0	1	0	1	779.062	0.686503	0.686901	0.636873	6	0.0704289	11	0	47.1352	0.000437468
2	1	0	1	0	1	791.608	0.650752	0.65111	0.247396	6	0.0773253	11	0	59.6812	0.000161082
2	1	0	1	0	1	804.391	0.58684	0.587185	0.0295608	6	0.0787034	11	0	72.4636	1.73577e-05
2	0	0	1	0	1	817.173	0.522928	0.523261	-1.3796e-05	6	0.078822	11	0	0.000000000000000E+000	-7.21888e-09
2	0	0	0	0	1	829.956	0.459015	0.459303	-0.00206713	6	0.0788056	11	0	11.5841	-9.4944e-07
2	1	0	1	0	0	842.504	0.503754	0.504058	0.00208854	7	0.0788168	11	0	10.6853	1.05275e-06
2	1	0	1	0	0	855.286	0.567666	0.567994	0.0151697	7	0.078894	11	0	23.4677	8.61633e-06
2	1	0	1	0	0	868.069	0.631578	0.631901	0.1497	7	0.079677	11	0	36.2501	9.45954e-05
2	1	0	0	0	0	880.851	0.69549	0.695792	0.768532	7	0.0847982	11	0	49.0326	0.000534738
2	1	0	0	0	0	893.397	0.641764	0.642056	0.192341	7	0.0908314	11	0	61.5786	0.000123493
2	1	0	1	0	0	906.18	0.577851	0.578116	0.0205212	7	0.0918739	11	0	74.3611	1.18637e-05
2	0	0	1	0	0	918.962	0.51394	0.514227	-0.000255188	7	0.0919508	11	0	0.6991	-1.31224e-07
2	1	0	1	0	0	931.72	0.450153	0.450405	-0.00108309	7	0.0919324	11	0	13.4566	-4.87828e-07
2	1	0	1	0	1	944.293	0.512742	0.513031	0.00276409	8	0.0919536	11	0	12.4829	1.41806e-06
2	1	0	1	0	1	957.076	0.576654	0.576964	0.0216097	8	0.0920611	11	0	25.2653	1.2468e-05
2	1	0	1	0	1	969.858	0.640566	0.640901	0.198384	8	0.0931337	11	0	38.0477	0.000127144
2	1	0	1	0	1	982.404	0.696689	0.697019	0.783355	8	0.0992288	11	0	50.5937	0.000546014
2	1	0	1	0	1	995.186	0.632777	0.633106	0.148231	8	0.104332	11	0	63.3761	9.38459e-05
2	1	0	1	0	1	1007.97	0.568864	0.569193	0.0142106	8	0.105113	11	0	76.1586	8.08855e-06
[...]
2	1	0	0	0	1	1198.76	0.614801	0.615142	0.0858502	10	0.131408	11	0	66.9712	5.28101e-05
2	1	0	0	0	1	1211.55	0.550889	0.551243	0.00610919	10	0.131832	11	0	79.7536	3.36765e-06
2	0	0	1	0	1	1224.33	0.486977	0.487277	-0.00110949	10	0.131844	11	0	4.5937	-5.40627e-07
2	1	0	0	0	0	1236.88	0.475792	0.476069	0.00171026	11	0.13184	11	0	5.148	8.14202e-07
2	1	0	0	0	0	1249.66	0.539704	0.540004	0.00553771	11	0.13188	11	0	17.9304	2.99039e-06
2	1	0	1	0	0	1262.44	0.603617	0.603944	0.0622465	11	0.132183	11	0	30.7129	3.75934e-05
2	1	0	1	0	0	1275.23	0.667529	0.667891	0.420235	11	0.134723	11	0	43.4953	0.000280671
2	1	0	1	0	0	1287.77	0.669726	0.67002	0.4254	11	0.142486	11	0	56.0413	0.000285027
2	1	0	1	0	0	1300.55	0.605814	0.606118	0.0649071	11	0.145051	11	0	68.8237	3.93414e-05
2	1	0	1	0	0	1313.34	0.541902	0.54223	0.00338526	11	0.145357	11	0	81.6061	1.83559e-06
2	0	0	1	0	0	1326.12	0.477989	0.478302	-0.000934173	11	0.14536	11	0	5.9918	-4.46816e-07
2	1	0	1	0	1	1338.67	0.48478	0.485109	0.00188392	12	0.145364	11	0	6.9455	9.13905e-07
2	1	0	1	0	1	1351.45	0.548692	0.548984	0.0081742	12	0.145414	11	0	19.7279	4.4875e-06
2	1	0	1	0	1	1364.23	0.612604	0.612931	0.0861465	12	0.145844	11	0	32.5104	5.28019e-05
2	1	0	1	0	1	1377.01	0.676516	0.676848	0.524208	12	0.149133	11	0	45.2928	0.000354809
2	1	0	1	0	1	1389.56	0.660738	0.661063	0.341422	12	0.156782	11	0	57.8389	0.000225701
2	1	0	1	0	1	1402.34	0.596826	0.597142	0.0480546	12	0.158792	11	0	70.6213	2.86954e-05
2	1	0	1	0	1	1415.13	0.532914	0.53323	0.0023374	12	0.159007	11	0	83.4037	1.24637e-06
2	0	0	1	0	1	1427.91	0.469002	0.469301	-0.00143242	12	0.159004	11	0	8.2886	-6.72236e-07
2	1	0	1	0	0	1440.46	0.493768	0.494121	0.00239663	13	0.159015	11	0	8.6881	1.18423e-06
2	1	0	1	0	0	1453.24	0.55768	0.558005	0.0112185	13	0.159079	11	0	21.4705	6.25998e-06
2	1	0	1	0	0	1466.02	0.621592	0.621896	0.118084	13	0.159683	11	0	34.2529	7.34362e-05
2	1	0	1	0	0	1478.8	0.685504	0.685819	0.640715	13	0.163872	11	0	47.0353	0.000439414
2	1	0	0	0	0	1491.35	0.65175	0.652043	0.272339	13	0.171071	11	0	59.5814	0.000177577
2	1	0	0	0	0	1504.13	0.587838	0.588146	0.0352422	13	0.172635	11	0	72.3638	2.07276e-05
2	0	0	0	0	0	1516.91	0.523926	0.524183	0.000966793	13	0.172784	11	0	85.1462	5.06776e-07
2	0	0	1	0	0	1529.7	0.460014	0.460364	-0.00101572	13	0.172777	11	0	9.2873	-4.67599e-07
2	1	0	0	0	1	1542.25	0.502755	0.503045	0.00288139	14	0.172796	11	0	10.5406	1.44947e-06
2	1	0	0	0	1	1555.03	0.566667	0.567109	0.0162092	14	0.172882	11	0	23.323	9.19239e-06
2	1	0	0	0	1	1567.81	0.63058	0.63089	0.159665	14	0.173724	11	0	36.1054	0.000100731
2	1	0	1	0	1	1580.59	0.694492	0.694826	0.776004	14	0.178985	11	0	48.8879	0.000539188
2	1	0	1	0	1	1593.14	0.642763	0.643061	0.215558	14	0.185405	11	0	61.4339	0.000138617
2	1	0	1	0	1	1605.92	0.578851	0.579158	0.0254669	14	0.186611	11	0	74.2163	1.47494e-05
2	1	0	1	0	1	1618.7	0.514939	0.515217	0.000633234	14	0.186711	11	0	86.9987	3.26253e-07
2	1	0	1	0	1	1631.49	0.451026	0.451341	-0.00116701	14	0.186702	11	0	10.4856	-5.26721e-07
2	1	0	1	0	0	1644.03	0.511743	0.512055	0.00342077	15	0.186731	11	0	12.2831	1.75162e-06
2	1	0	1	0	0	1656.82	0.575655	0.575986	0.0232938	15	0.186849	11	0	25.0655	1.34169e-05
2	1	0	1	0	0	1669.6	0.639567	0.639889	0.210845	15	0.188004	11	0	37.8479	0.000134918
2	1	0	1	0	0	1682.15	0.697687	0.698011	0.824375	15	0.194264	11	0	50.394	0.000575423
2	1	0	1	0	0	1694.93	0.633775	0.634112	0.169604	15	0.19979	11	0	63.1764	0.000107548
2	1	0	1	0	0	1707.71	0.569863	0.570236	0.0177487	15	0.200712	11	0	75.9589	1.01209e-05
2	1	0	1	0	0	1720.49	0.505951	0.5063	-0.000139387	15	0.200777	11	0	0.000000000000000E+000	-7.05715e-08
2	0	0	1	0	0	1731.68	0.450003	0.450141	-0.00308535	15	0.200769	11	0	9.987	-1.38884e-06