Folder: SI_for_publications/ACS_Catal_2026/Figures_Na_K/main_figures/data/XAS/20240410_2-132_CEY_after_electrolysis

Note: ACS_Catal_2026/ReadMe.md
## Codes to generate the figures in "Influence of Electrolyte Cations on the Oxygen Evolution Reaction of Nanochanneled Manganese Oxide"

All the code files were written by Koichi Yatsuzuka.
Includes the raw data files (binary and text).
The code uses Yatsuzuka's original library (included).

File: merge_4-K_CEY.nor
# XDI/1.0 Athena/0.9.26
# Element.edge:                  K
# Element.symbol:                Mn
# Column.1:                      energy eV
# Column.2:                      norm
# Column.3:                      nbkg
# Column.4:                      flat
# Column.5:                      fbkg
# Column.6:                      nder
# Column.7:                      nsec
# Athena.e0:                     6553.78
# Athena.eshift:                 0
# Athena.rbkg:                   1.0
# Athena.importance:             1
# Athena.standard:               None
# Athena.bkg_kweight:            2
# Athena.edge_step:              0.3695525
# Athena.fixed_step:             no
# Athena.pre_edge_range:         -150.000 -30.000
# Athena.pre_edge_line:          -0.371072 + 8.17752e-005 * E
# Athena.normalization_range:    150.000 1390.562
# Athena.post_edge_polynomial:   1.513267 - 0.000358575 * E + 3.19233e-08 * E^2 + 0 * E^3
# Athena.spline_range_energy:    0.000 1490.499
# Athena.clamps:                 0 24
# Athena.spline_range_k:         0.000 19.779
# Athena.kweight:                2
# Athena.window:                 hanning
# Athena.phase_correction:       no
# Athena.k_range:                1 12
# Athena.dk:                     1
# Athena.r_range:                1 2
# Athena.dr:                     0.0
# Athena.window:                 hanning
# Athena.plot_multiplier:        1
# Athena.y_offset:               0
# ///
#------------------------
#   e         norm        nbkg        flat        fbkg        nder        nsec
  6213.39       0.00529221   0.00529221   0.00529221   0.00529221  -2.39496e-05   1.7051e-06
  6253.79       0.00455801   0.00455801   0.00455801   0.00455801  -3.21111e-05  -3.20445e-06
  6294.7       0.00350847   0.00350847   0.00350847   0.00350847  -4.25738e-05   4.92878e-07
  6335.99       0.00261411   0.00261411   0.00261411   0.00261411  -3.0478e-05  -1.18299e-06
  6378.22       0.00147867   0.00147867   0.00147867   0.00147867  -2.68888e-05   2.333e-06
  6420.59       0.000473229   0.000473229   0.000473229   0.000473229  -8.00496e-06   7.67857e-07
  6463.99      -0.000536843  -0.000536843  -0.000536843  -0.000536843  -2.8439e-05   1.6835e-06
  6501.88      -0.000461343  -0.000461343  -0.000461343  -0.000461343  -6.67369e-06  -2.47834e-05
  6504.26      -0.000939934  -0.000939934  -0.000939934  -0.000939934   0.000250913   0.000298887
  6506.78      -0.000922716  -0.000922716  -0.000922716  -0.000922716   0.000205798   0.00175228
  6509.37      -0.000144018  -0.000144018  -0.000144018  -0.000144018   0.000120158  -0.000575503
  6511.82       0.000141129   0.00014113   0.000141129   0.00014113   0.000345209  -0.00102795
  6514.26       0.00033398   0.00033398   0.00033398   0.00033398   0.000560784  -0.00321397
  6516.9       0.000276489   0.000276489   0.000276489   0.000276489  -0.000602169  -0.000982559
  6519.38       0.000475952   0.000475953   0.000475952   0.000475953   0.000109056   0.000695727
  6521.76       0.00127988   0.00127988   0.00127988   0.00127988   0.000279618  -0.00130854
  6524.36       0.00166464   0.00166464   0.00166464   0.00166464   4.45359e-05  -0.000339365
  6526.91       0.00226853   0.00226853   0.00226853   0.00226853  -0.000159514   0.000150088
  6529.3       0.00352006   0.00352006   0.00352006   0.00352006  -4.46244e-05   0.000508045
  6531.83       0.00490895   0.00490895   0.00490895   0.00490895   0.000565806   0.0019308
  6534.44       0.00846715   0.00846715   0.00846715   0.00846715   0.00236897   0.00273782
  6536.87       0.0319483   0.0319483   0.0319483   0.0319483   0.0220442   0.00938207
  6539.32       0.0767308   0.0767308   0.0767308   0.0767308   0.0140777  -0.0135669
  6541.98       0.0695551   0.0695552   0.0695552   0.0695552   0.000948825   0.010658
  6544.45       0.102943       0.102943       0.102943       0.102943       0.0298451   0.0194939
  6546.85       0.263216       0.263216       0.263216       0.263216       0.0930863  -0.00468674
  6549.49       0.529298       0.529298       0.529298       0.529298       0.121183       0.0100989
  6552.05       0.799513       0.799513       0.799513       0.799513       0.104501       0.0160245
  6554.45        1.10027        2.67765        1.10031        2.67769       0.117237      -0.0149368
  6557.02        1.35713        1.92195        1.35732        1.92214       0.0714897  -0.0429964
  6559.64        1.40596        1.42677        1.40631        1.42711      -0.0221274  -0.0366841
  6562.1        1.26977        1.16189        1.27026        1.16238      -0.0605235   0.00153678
  6564.58        1.132        1.03356        1.13263        1.03419      -0.0375119   0.0294118
  6567.24        1.09341       0.990153        1.09419       0.990935       0.00141581   0.0135025
  6569.74        1.12687       0.981106        1.12779       0.98203       0.0185705   0.000253407
  6572.17        1.15815       0.97468        1.15921       0.97574       0.000594576  -0.00493475
  6574.82        1.13146       0.969125        1.13267       0.970334      -0.0250131  -0.0103259
  6577.38        1.05696       0.965107        1.05832       0.966459      -0.0312721  -0.00216884
  6579.81       0.972945       0.962415       0.974429       0.963899      -0.0279667   0.00794845
  6582.41       0.905071       0.960621       0.906697       0.962248      -0.0257852   0.00466766
  6585.04       0.860416       0.959848       0.862185       0.961617      -0.0130028   0.000176099
  6587.49       0.838028       0.959967       0.839929       0.961867      -0.00392983   0.00285856
  6590.01       0.835813       0.960831       0.837847       0.962866       0.000813644   0.000611589
  6594.03       0.847675       0.96352       0.849921       0.965767       0.0067145   0.00087588
  6607.46       0.989065       0.97915       0.991999       0.982084       0.0140139  -0.000182523
  6620.68        1.0629       0.993567        1.06648       0.997147      -0.00406924  -0.000988541
  6634        1.01569        1.00169        1.01989        1.00589       0.0011541   0.000466332
  6647.22        1.01591        1.00469        1.02069        1.00947      -0.00219396   1.15118e-05
  6660.53        1.00029        1.0041        1.00563        1.00945      -0.000863994  -0.000340777
  6676.24       0.95099        1.00079       0.956956        1.00676      -0.00345581   0.000385685
  6694.67       0.984509       0.996381       0.991148        1.00302       0.00443509  -0.000127891
  6713.16        1.02295       0.993167        1.0302        1.00042       0.000236139  -4.7906e-05
  6731.83        1.01451       0.990988        1.02233       0.998807      -0.00234536  -0.000214656
  6750.59       0.980758       0.989585       0.989082       0.997909       1.41053e-05   0.000193951
  6769.47       0.9855       0.988678       0.994271       0.997449      -0.000415593  -7.78775e-05
  6791.63       0.980995       0.987859       0.990211       0.997076       0.00036787   2.62271e-05
  6815.39       0.985297       0.98691       0.994897       0.99651       0.00025645   1.93108e-06
  6839.1       0.989101       0.985915       0.998987       0.995801       0.000247801  -2.13386e-05
  6863.11       0.988903       0.984963       0.99898       0.99504       8.86776e-05   1.35071e-05
  6887.41       0.987095       0.984164       0.997262       0.994331      -0.000320926  -2.55133e-05
  6911.83       0.976122       0.983636       0.986278       0.993792      -0.000370028   4.07728e-05
  6940.56       0.980039       0.983506       0.99005       0.993518       0.000549   5.54732e-06
  6969.35       0.990071       0.98392       0.999794       0.993644      -6.68736e-06  -2.62639e-05
  6998.4       0.98668       0.984811       0.995968       0.994098      -0.000120034  -9.83705e-06
  7027.69       0.984203       0.986105       0.992904       0.994805       0.000118479   1.91667e-05
  7057.52       0.99017       0.987746       0.99812       0.995695       7.49715e-05  -2.53787e-05
  7088.59       0.987311       0.989703       0.994316       0.996707      -8.38923e-05   4.36446e-06
  7122.31       0.990764       0.992027       0.996554       0.997817       0.000380831   1.44344e-06
  7156.53       0.996617       0.994572        1.00097       0.998929       7.30185e-05   2.04831e-06
  7191.02       0.998222       0.99731        1.00093        1.00002      -1.06605e-05  -2.62817e-06
  7226.21       0.999765        1.00027        1.00058        1.00108       5.7171e-05  -2.13972e-06
  7261.48        1.0021        1.00338        1.0008        1.00208       6.02354e-05  -4.275e-08
  7298.69        1.00627        1.0068        1.00251        1.00303       0.000115971   4.90637e-06
  7337.89        1.01115        1.01052        1.00454        1.00391       8.84454e-05   2.54092e-06
  7377.2        1.01487        1.01435        1.00513        1.00461       0.00015109  -1.7069e-06
  7417.38        1.01876        1.01833        1.00555        1.00512       4.6676e-05  -1.54757e-07
  7457.81        1.02227        1.02237        1.00528        1.00537       2.32153e-05   2.01664e-06
  7498.56        1.02625        1.02642        1.00517        1.00533       8.38553e-05  -4.89679e-06
  7542.29        1.03068        1.03073        1.00488        1.00493       0.000131527  -4.21727e-06
  7586.44        1.03493        1.03509        1.00404        1.0042       5.11124e-05   5.1371e-06
  7631.57        1.03952        1.03961        1.00309        1.00317       8.70097e-05   5.43601e-07
  7676.92        1.04423        1.04429        1.00186        1.00192       9.26627e-05   3.91826e-06
  7723.2        1.04937        1.04926        1.00058        1.00047       0.000117699   1.33938e-06
  7769.84        1.05451        1.05455       0.998873       0.998911       9.68261e-05   9.45275e-07
  7818.93        1.06041        1.06041       0.997162       0.997161       0.000120599  -2.64733e-06
  7868.81        1.0665        1.0666       0.995096       0.995198       0.000113202   2.34125e-06
  7919.03        1.07278        1.07301       0.99272       0.992959       0.000171539  -1.33083e-07
  7970.09        1.07943        1.07963       0.990128       0.990333       0.000194815   2.29499e-06
  8021.75        1.08676        1.08634       0.987659       0.987236       0.000133217   3.04959e-06
  8044.14        1.08983        1.08924       0.986334       0.985735       0.000115208  -1.86972e-06

File: merge_4-Na_CEY.nor
# XDI/1.0 Athena/0.9.26
# Element.edge:                  K
# Element.symbol:                Mn
# Column.1:                      energy eV
# Column.2:                      norm
# Column.3:                      nbkg
# Column.4:                      flat
# Column.5:                      fbkg
# Column.6:                      nder
# Column.7:                      nsec
# Athena.e0:                     6553.78
# Athena.eshift:                 0
# Athena.rbkg:                   1.0
# Athena.importance:             1
# Athena.standard:               None
# Athena.bkg_kweight:            2
# Athena.edge_step:              0.3749037
# Athena.fixed_step:             no
# Athena.pre_edge_range:         -150.000 -30.000
# Athena.pre_edge_line:          -0.397705 + 8.43239e-005 * E
# Athena.normalization_range:    150.000 1390.562
# Athena.post_edge_polynomial:   1.478770 - 0.000351385 * E + 3.15229e-08 * E^2 + 0 * E^3
# Athena.spline_range_energy:    0.000 1490.499
# Athena.clamps:                 0 24
# Athena.spline_range_k:         0.000 19.779
# Athena.kweight:                2
# Athena.window:                 hanning
# Athena.phase_correction:       no
# Athena.k_range:                1 12
# Athena.dk:                     1
# Athena.r_range:                1 2
# Athena.dr:                     0.0
# Athena.window:                 hanning
# Athena.plot_multiplier:        1
# Athena.y_offset:               0
# ///
#------------------------
#   e         norm        nbkg        flat        fbkg        nder        nsec
  6213.46       0.0074625   0.0074625   0.0074625   0.0074625   1.20715e-05  -6.78347e-06
  6253.86       0.00629737   0.00629737   0.00629737   0.00629737  -4.46007e-05  -1.66728e-06
  6294.77       0.00443176   0.00443176   0.00443176   0.00443176  -4.57337e-05   5.1285e-06
  6336.06       0.00322925   0.00322925   0.00322925   0.00322925  -1.96296e-05  -7.12145e-06
  6378.12       0.00192238   0.00192238   0.00192238   0.00192238   3.29455e-06  -1.30932e-07
  6420.67       0.000519544   0.000519544   0.000519544   0.000519544  -1.75895e-05   6.8745e-07
  6463.95      -0.000541935  -0.000541935  -0.000541935  -0.000541935   8.52813e-06   1.02908e-06
  6501.82      -0.000803964  -0.000803964  -0.000803964  -0.000803964  -3.28752e-05   0.000539245
  6504.39      -0.000494119  -0.000494119  -0.000494119  -0.000494119   0.000577858  -0.000444367
  6506.88      -0.000814312  -0.000814312  -0.000814312  -0.000814312  -0.000514886   4.20961e-05
  6509.12      -0.000600884  -0.000600884  -0.000600884  -0.000600884  -0.000127376   0.00124175
  6511.92      -0.000482915  -0.000482915  -0.000482915  -0.000482915  -0.000344754   0.000288074
  6514.33      -0.000365365  -0.000365365  -0.000365365  -0.000365365  -0.000342708   0.000663576
  6516.62      -0.000283115  -0.000283115  -0.000283115  -0.000283115  -0.000128005   0.00127798
  6519.45       0.000736008   0.000736008   0.000736008   0.000736008   0.000302943   0.000796602
  6521.84       0.00136561   0.00136561   0.00136561   0.00136561   0.000354032  -0.000854823
  6524.28       0.00167559   0.00167559   0.00167559   0.00167559  -0.00014813  -2.24121e-05
  6526.8       0.00223792   0.00223792   0.00223792   0.00223792   0.000972677  -0.000574058
  6529.4       0.00272478   0.00272478   0.00272478   0.00272478  -0.000455501   0.00187831
  6531.91       0.00473505   0.00473505   0.00473505   0.00473505   0.00139723   0.00132995
  6534.16       0.0073412   0.0073412   0.0073412   0.0073412   0.00271208   0.00345987
  6536.97       0.0344958   0.0344958   0.0344958   0.0344958   0.0232221   0.00868253
  6539.4       0.0760642   0.0760642   0.0760642   0.0760642   0.0111034  -0.0134327
  6541.89       0.0693329   0.0693329   0.0693329   0.0693329   0.000306719   0.00707173
  6544.55       0.110966       0.110966       0.110966       0.110966       0.0353634   0.0238985
  6546.95       0.293248       0.293248       0.293248       0.293248       0.0989239  -0.00868368
  6549.57       0.558163       0.558163       0.558163       0.558163       0.116111       0.0051856
  6552.14       0.822199       0.822199       0.822199       0.822199       0.102819       0.0150881
  6554.56        1.11801        2.64512        1.11806        2.64517       0.111113      -0.0147504
  6557.1        1.36325        1.9081        1.36345        1.9083       0.0706319  -0.0467286
  6559.74        1.40522        1.41493        1.40557        1.41528      -0.0322152  -0.0419383
  6562.2        1.24944        1.15057        1.24994        1.15107      -0.0619683   0.00848486
  6564.66        1.11966        1.02328        1.1203        1.02392      -0.0329456   0.0310784
  6567.33        1.09167       0.979687        1.09247       0.980485       0.00560687   0.0169387
  6569.84        1.12925       0.972887        1.13019       0.97383       0.0171785  -0.000141903
  6572.26        1.1549       0.968821        1.15598       0.969902      -0.000889493  -0.00960268
  6574.9        1.12286       0.96545        1.12409       0.966681      -0.025816  -0.0131893
  6577.49        1.04905       0.96314        1.05043       0.964517      -0.0311024  -0.00369571
  6579.92       0.968024       0.96178       0.969536       0.963293      -0.0276939   0.00221849
  6582.49       0.901279       0.961128       0.902935       0.962784      -0.0263683   0.00331764
  6585.14       0.858203       0.961217       0.860004       0.963017      -0.0109794   0.000869992
  6587.6       0.838062       0.961913       0.839998       0.963848      -0.00240946   0.00340692
  6590.1       0.836562       0.963152       0.838633       0.965222       0.00214758  -0.00273447
  6594.13       0.850885       0.966089       0.853172       0.968376       0.00775996   0.00100993
  6607.4       0.993207       0.98036       0.996186       0.983339       0.0135894  -0.000407395
  6620.59        1.05964       0.993443        1.06328       0.997081      -0.00396799  -0.0008302
  6633.93        1.01528        1.00101        1.01955        1.00529       0.00109761   0.000478829
  6647.33        1.01453        1.00398        1.01941        1.00886      -0.00219174   2.0098e-05
  6660.63       0.998651        1.00362        1.00411        1.00908      -0.00082801  -0.000273249
  6676.02       0.953608        1.00079       0.959694        1.00687      -0.0031915   0.000337982
  6694.41       0.984017       0.99662       0.990801        1.0034       0.0040625  -0.000116163
  6713.24        1.0224       0.993354        1.02984        1.0008       0.000406651  -6.87136e-05
  6731.72        1.01447       0.991079        1.0225       0.999106      -0.00215247  -0.000211398
  6750.66       0.980093       0.989472       0.98866       0.99804      -7.95736e-06   0.000188618
  6769.39       0.983867       0.988376       0.99291       0.997419      -0.000237906  -1.64782e-05
  6791.52       0.981481       0.987396       0.99101       0.996925       0.000342294   1.81432e-05
  6815.3       0.984741       0.986398       0.9947       0.996357       0.000256885   3.08901e-06
  6839.2       0.98862       0.985425       0.998916       0.995721       0.000230743  -1.77161e-05
  6863.22       0.988521       0.984547       0.999058       0.995084      -7.45893e-05   1.72377e-05
  6887.3       0.985909       0.983834       0.996591       0.994516      -0.000307402  -3.63837e-06
  6911.94       0.976341       0.98335       0.98707       0.994079      -0.000316006   2.78055e-05
  6940.43       0.979415       0.983193       0.990072       0.99385       0.000496755   1.23483e-05
  6969.47       0.989269       0.983505       0.99971       0.993947      -4.99064e-06  -2.62818e-05
  6998.51       0.986345       0.984239       0.99643       0.994324      -0.000196414  -1.43528e-05
  7027.81       0.983852       0.985349       0.993434       0.994931       0.000105411   1.00369e-05
  7057.63       0.988323       0.986798       0.997244       0.99572       1.39783e-05  -1.04202e-05
  7088.49       0.985913       0.988572       0.993993       0.996652      -3.90302e-05   1.56169e-05
  7122.42       0.990057       0.990769       0.997028       0.99774       0.000301925   3.17759e-07
  7156.45       0.995219       0.993193        1.00088       0.998856       0.000101627   1.35721e-06
  7191.16       0.996625       0.995858        1.00075       0.999987       1.62953e-05  -2.5082e-08
  7225.9       0.997517       0.998687       0.999908        1.00108       5.59349e-05   7.77589e-06
  7261.17        1.00042        1.00169        1.00084        1.00211       0.000112043   2.30345e-07
  7298.6        1.00502        1.00498        1.00312        1.00308       0.000103371   6.43485e-07
  7337.99        1.00908        1.00853        1.00448        1.00393       0.000117844  -4.01263e-07
  7377.32        1.01229        1.01214        1.00473        1.00458       7.43168e-05  -9.43701e-07
  7417.28        1.01605        1.01585        1.00523        1.00503       0.000115016  -6.73061e-07
  7457.7        1.01987        1.01963        1.00546        1.00523       8.1346e-05  -2.32119e-06
  7498.47        1.02307        1.02345        1.00478        1.00516       6.72036e-05   1.12035e-07
  7541.95        1.02705        1.02752        1.0043        1.00477       0.000141185   3.995e-06
  7586.55        1.03242        1.03171        1.00478        1.00406       4.13638e-05  -4.28011e-06
  7631.44        1.03594        1.03599        1.00302        1.00308       0.000120922  -1.82917e-06
  7677.04        1.04025        1.04048        1.00164        1.00186       0.0001146  -5.5134e-07
  7723.11        1.0454        1.04519        1.00068        1.00047       9.34136e-05  -2.13846e-06
  7769.98        1.05055        1.05025       0.999235       0.998942       9.27347e-05  -1.1411e-06
  7819.06        1.05593        1.05585       0.997324       0.997242       0.000121534  -8.68275e-07
  7868.68        1.06152        1.06171       0.99513       0.995325       0.00011773   3.25022e-06
  7919.2        1.0675        1.06779       0.992762       0.993048       0.000112911   1.24052e-06
  7969.97        1.07372        1.07387       0.990157       0.990308       0.000145151   6.31607e-07
  8021.9        1.08068        1.07995       0.987647       0.986909       0.000118855   8.98934e-08
  8044.01        1.08318        1.08246       0.98597       0.985246       8.71279e-05  -4.55923e-06