Folder: SI_for_publications/ACS_Catal_2026/Figures_Na_K/main_figures/data/EC/20240527_2-145_re-addition (part 2)

File: 20240527_2-145_inK_03_CVA_C02.mpt
EC-Lab ASCII FILE
Nb header lines : 66

Cyclic Voltammetry Advanced

Run on channel : 2 (SN 68855)
User :
CE vs. WE compliance from -10 V to 10 V
Electrode connection : standard
Potential control : Ewe
Ewe ctrl range : min = -1.00 V, max = 1.00 V
Safety Limits :
	Do not start on E overload
Acquisition started on : 05/28/2024 11:18:57.125
Loaded Setting File :  C:\Users\HZ-7000\Documents\EC-Lab\Data\Yatsuzuka\20240502_2-136_UPS_preparation\20240502_2-136_UPS_preparation_K-1.mps
Saved on :
	File : 20240527_2-145_inK_03_CVA_C02.mpr
	Directory : C:\Users\HZ-7000\Documents\EC-Lab\Data\Yatsuzuka\20240527_2-145_re-addition\
	Host : 192.109.209.100
Device : SP-150e (SN .003466)
Address : 192.109.209.128
EC-Lab for windows v11.50 (software)
Internet server v11.50 (firmware)
Command interpretor v11.50 (firmware)
Electrode material :
Initial state :
Electrolyte :
Comments :
Electrode surface area : 0.001 cm2
Characteristic mass : 0.001 g
Equivalent Weight : 0.000 g/eq.
Density : 0.000 g/cm3
Volume (V) : 0.001 cm3
Cycle Definition : Charge/Discharge alternance
Ei (V)              0.450
vs.                 Ref
ti (h:m:s)          0:00:10.0000
dti (s)             0.0000
dE/dt               5.000
dE/dt unit          mV/s
E1 (V)              0.700
vs.                 Ref
t1 (h:m:s)          0:00:0.0000
dt1 (s)             0.1000
Step percent        50
N                   10
E range min (V)     -1.000
E range max (V)     1.000
I Range             10 mA
I Range min         Unset
I Range max         Unset
I Range init        Unset
Bandwidth           5
E2 (V)              0.450
vs.                 Ref
t2 (h:m:s)          0:00:0.0000
dt2 (s)             0.1000
nc cycles           14
nr                  1
Reverse Scan        0
Ef (V)              0.000
vs.                 Eoc
tf (h:m:s)          0:00:0.0000
dtf (s)             0.1000

mode	ox/red	error	control changes	Ns changes	counter inc.	time/s	control/V	Ewe/V	<I>/mA	cycle number	(Q-Qo)/C	I Range	Ns	step time/s	P/W
2	1	0	1	0	0	231.391	0.449949	0.449384	0.00389451	1	0.0000000E+000	11	0	0.000000000000000E+000	1.75013e-06
2	1	0	1	0	0	244.029	0.513138	0.512494	0.0549366	1	0.000566516	11	0	12.5831	2.81547e-05
2	1	0	1	0	0	256.712	0.576553	0.575949	0.146214	1	0.00165114	11	0	25.2661	8.42119e-05
2	1	0	1	0	0	269.395	0.639968	0.639408	0.867511	1	0.00683928	11	0	37.9491	0.000554693
2	1	0	1	0	0	281.861	0.69769	0.697101	2.63251	1	0.0288203	11	0	50.4149	0.00183513
2	1	0	1	0	0	294.544	0.634276	0.633692	0.61685	1	0.0479068	11	0	63.0978	0.000390893
2	1	0	0	0	0	307.227	0.570861	0.570246	0.0323549	1	0.0508235	11	0	75.7808	1.84502e-05
2	0	0	1	0	0	319.91	0.507446	0.506828	-0.0243734	1	0.0507342	11	0	8.6883	-1.23531e-05
2	1	0	0	0	1	332.358	0.454817	0.454218	0.0315185	2	0.0504256	11	0	0.7989	1.43163e-05
2	1	0	1	0	1	345.041	0.518231	0.517607	0.0356587	2	0.050868	11	0	13.4818	1.84572e-05
2	1	0	1	0	1	357.724	0.581646	0.581009	0.10773	2	0.0516045	11	0	26.1648	6.25919e-05
2	1	0	1	0	1	370.407	0.645061	0.644486	0.835459	2	0.0562724	11	0	38.8478	0.000538442
2	1	0	1	0	1	382.853	0.692697	0.692096	2.26644	2	0.0777852	11	0	51.2936	0.00156859
2	1	0	1	0	1	395.536	0.629282	0.628676	0.465535	2	0.0935854	11	0	63.9766	0.000292671
2	1	0	1	0	1	408.219	0.565868	0.565248	0.0133576	2	0.0956505	11	0	76.6595	7.55034e-06
2	0	0	0	0	1	420.902	0.502453	0.50186	-0.0250869	2	0.0954853	11	0	10.3861	-1.25901e-05
2	1	0	1	0	0	433.35	0.45981	0.459199	0.0320933	3	0.0952336	11	0	1.7976	1.47372e-05
2	1	0	0	0	0	446.033	0.523225	0.522618	0.0377611	3	0.0956637	11	0	14.4805	1.97346e-05
2	1	0	1	0	0	458.716	0.58664	0.586043	0.115826	3	0.0964176	11	0	27.1635	6.78793e-05
2	1	0	1	0	0	471.398	0.650054	0.649462	0.897956	3	0.101449	11	0	39.8464	0.000583189
2	1	0	1	0	0	483.844	0.687704	0.68712	2.00756	3	0.123333	11	0	52.2923	0.00137944
2	1	0	1	0	0	496.527	0.624289	0.623685	0.363057	3	0.136794	11	0	64.9752	0.000226433
2	1	0	1	0	0	509.21	0.560874	0.560267	0.00488126	3	0.1383	11	0	77.6582	2.73481e-06
2	0	0	1	0	0	521.893	0.497459	0.496811	-0.0248703	3	0.138092	11	0	11.8841	-1.23558e-05
2	1	0	1	0	1	534.341	0.464803	0.464172	0.0331446	4	0.137899	11	0	2.7962	1.53848e-05
2	1	0	1	0	1	547.024	0.528218	0.527612	0.0353484	4	0.138323	11	0	15.4792	1.86503e-05
2	1	0	0	0	1	559.707	0.591633	0.591046	0.127437	4	0.139125	11	0	28.1621	7.5321e-05
2	1	0	1	0	1	572.39	0.655048	0.654448	0.981484	4	0.144697	11	0	40.8451	0.000642331
2	1	0	0	0	1	584.836	0.682711	0.682107	1.77234	4	0.166825	11	0	53.2909	0.00120892
2	1	0	1	0	1	597.519	0.619296	0.618698	0.282929	4	0.178243	11	0	65.9739	0.000175048
2	1	0	1	0	1	610.202	0.555881	0.555253	-0.00322102	4	0.179345	11	0	0.4993	-1.78848e-06
2	0	0	1	0	1	622.885	0.492466	0.491838	-0.0255963	4	0.179108	11	0	13.1823	-1.25892e-05
2	1	0	0	0	0	635.333	0.469797	0.469203	0.0318914	5	0.178975	11	0	3.7949	1.49635e-05
2	1	0	1	0	0	648.016	0.533211	0.532638	0.0381625	5	0.179398	11	0	16.4778	2.03268e-05
2	1	0	1	0	0	660.699	0.596626	0.596031	0.143315	5	0.180268	11	0	29.1608	8.54202e-05
2	1	0	1	0	0	673.382	0.660041	0.65946	1.08162	5	0.186514	11	0	41.8438	0.000713283
2	1	0	1	0	0	685.828	0.677717	0.677169	1.56521	5	0.208788	11	0	54.2896	0.00105991
2	1	0	1	0	0	698.511	0.614302	0.613719	0.220581	5	0.218466	11	0	66.9726	0.000135375
2	0	0	1	0	0	711.194	0.550888	0.550269	-0.00930614	5	0.219259	11	0	1.498	-5.12088e-06
2	0	0	0	0	0	723.877	0.487473	0.486862	-0.0255463	5	0.219	11	0	14.181	-1.24375e-05
2	1	0	1	0	1	736.325	0.47479	0.474189	0.0311122	6	0.218928	11	0	4.7935	1.47531e-05
2	1	0	0	0	1	749.008	0.538205	0.53757	0.0375513	6	0.219352	11	0	17.4765	2.01864e-05
2	1	0	1	0	1	761.69	0.601619	0.601015	0.165998	6	0.22031	11	0	30.1594	9.97672e-05
2	1	0	1	0	1	774.373	0.665034	0.664473	1.1863	6	0.227308	11	0	42.8424	0.000788261
2	1	0	1	0	1	786.819	0.672725	0.672113	1.36782	6	0.249481	11	0	55.2882	0.000919327
2	1	0	1	0	1	799.502	0.609309	0.608723	0.168094	6	0.25762	11	0	67.9712	0.000102323
2	0	0	1	0	1	812.185	0.545894	0.545281	-0.010369	6	0.25817	11	0	2.7963	-5.65402e-06
2	0	0	1	0	1	824.868	0.48248	0.481869	-0.0282005	6	0.257895	11	0	15.4792	-1.3589e-05
2	1	0	1	0	0	837.316	0.479783	0.47914	0.0323343	7	0.257883	11	0	5.7922	1.54927e-05
2	1	0	1	0	0	849.999	0.543198	0.54257	0.040546	7	0.25831	11	0	18.4752	2.19991e-05
2	1	0	0	0	0	862.682	0.606613	0.606009	0.18652	7	0.25937	11	0	31.1581	0.000113033
2	1	0	1	0	0	875.365	0.670028	0.669407	1.28965	7	0.267153	11	0	43.8411	0.000863302
2	1	0	0	0	0	887.811	0.667731	0.66713	1.17993	7	0.288739	11	0	56.2869	0.000787166
2	1	0	1	0	0	900.494	0.604316	0.603688	0.126158	7	0.295438	11	0	68.9699	7.61598e-05
2	0	0	1	0	0	913.177	0.540901	0.540291	-0.0152642	7	0.295792	11	0	3.8948	-8.24713e-06
2	0	0	1	0	0	925.86	0.477486	0.476854	-0.0290924	7	0.295504	11	0	16.5778	-1.38728e-05
2	1	0	1	0	1	938.308	0.484776	0.484185	0.0329511	8	0.295553	11	0	6.7908	1.59544e-05
2	1	0	1	0	1	950.991	0.548191	0.54757	0.0405085	8	0.295984	11	0	19.4738	2.21812e-05
2	1	0	1	0	1	963.674	0.611607	0.611013	0.212371	8	0.297157	11	0	32.1568	0.000129762
2	1	0	0	0	1	976.357	0.675021	0.674378	1.38672	8	0.305712	11	0	44.8397	0.000935175
2	1	0	1	0	1	988.803	0.662737	0.662127	0.999973	8	0.326317	11	0	57.2856	0.000662109
2	1	0	0	0	1	1001.49	0.599323	0.598748	0.0899149	8	0.331762	11	0	69.9685	5.38364e-05
2	0	0	1	0	1	1014.17	0.535908	0.535295	-0.016108	8	0.331962	11	0	4.9933	-8.62256e-06
2	0	0	1	0	1	1026.85	0.472493	0.471898	-0.0282618	8	0.331663	11	0	17.6762	-1.33367e-05
[...]
2	1	0	1	0	1	1203.47	0.589336	0.588728	0.043242	10	0.400543	11	0	71.9658	2.54578e-05
2	0	0	1	0	1	1216.15	0.525921	0.525273	-0.0200057	10	0.400535	11	0	7.5898	-1.05084e-05
2	0	0	1	0	1	1228.83	0.462506	0.461876	-0.0292854	10	0.400222	11	0	20.2728	-1.35262e-05
2	1	0	1	0	0	1241.28	0.499756	0.499084	0.0316869	11	0.400448	11	0	9.7868	1.58144e-05
2	1	0	1	0	0	1253.97	0.563171	0.562531	0.0460926	11	0.4009	11	0	22.4698	2.59285e-05
2	1	0	1	0	0	1266.65	0.626586	0.625997	0.313866	11	0.402549	11	0	35.1528	0.000196479
2	1	0	0	0	0	1279.33	0.690001	0.689426	1.74111	11	0.414003	11	0	47.8357	0.00120036
2	1	0	1	0	0	1291.78	0.647758	0.647138	0.577892	11	0.430763	11	0	60.2815	0.000373975
2	1	0	0	0	0	1304.46	0.584343	0.583658	0.0278263	11	0.433498	11	0	72.9645	1.6241e-05
2	0	0	1	0	0	1317.14	0.520928	0.52028	-0.0196534	11	0.433425	11	0	8.7882	-1.02253e-05
2	0	0	1	0	0	1329.83	0.457513	0.456902	-0.0302154	11	0.433105	11	0	21.4711	-1.38055e-05
2	1	0	1	0	1	1342.27	0.50475	0.504121	0.0316082	12	0.433389	11	0	10.7855	1.59344e-05
2	1	0	1	0	1	1354.96	0.568164	0.567542	0.0498452	12	0.433855	11	0	23.4684	2.82892e-05
2	1	0	1	0	1	1367.64	0.631579	0.630915	0.361174	12	0.43574	11	0	36.1514	0.00022787
2	1	0	1	0	1	1380.32	0.694994	0.694376	1.86681	12	0.448396	11	0	48.8344	0.00129627
2	1	0	1	0	1	1392.77	0.642764	0.642112	0.478377	12	0.463561	11	0	61.2802	0.000307171
2	1	0	1	0	1	1405.45	0.579349	0.578721	0.0166508	12	0.465714	11	0	73.9632	9.63617e-06
2	0	0	0	0	1	1418.14	0.515935	0.515303	-0.0206971	12	0.465592	11	0	9.687	-1.06653e-05
2	0	0	1	0	1	1430.82	0.45252	0.451892	-0.0298077	12	0.465265	11	0	22.37	-1.34699e-05
2	1	0	1	0	0	1443.27	0.509743	0.509137	0.0322106	13	0.465609	11	0	11.7842	1.63996e-05
2	1	0	1	0	0	1455.95	0.573158	0.572503	0.0550301	13	0.466093	11	0	24.4671	3.15049e-05
2	1	0	1	0	0	1468.63	0.636572	0.635975	0.415517	13	0.468261	11	0	37.15	0.000264258
2	1	0	1	0	0	1481.29	0.699863	0.699239	2.01954	13	0.482204	11	0	49.8081	0.00141214
2	1	0	1	0	0	1493.76	0.637771	0.637127	0.392211	13	0.495734	11	0	62.2788	0.000249888
2	1	0	1	0	0	1506.44	0.574356	0.573751	0.00753434	13	0.497419	11	0	74.9618	4.32283e-06
2	0	0	1	0	0	1519.13	0.510941	0.510342	-0.0223549	13	0.497257	11	0	10.8854	-1.14086e-05
2	1	0	1	0	1	1531.57	0.451321	0.450674	0.023032	14	0.496942	11	0	0.0998	1.03799e-05
2	1	0	1	0	1	1544.26	0.514736	0.514094	0.0301983	14	0.497329	11	0	12.7828	1.55248e-05
2	1	0	1	0	1	1556.94	0.578151	0.577558	0.0624927	14	0.497834	11	0	25.4658	3.60932e-05
2	1	0	1	0	1	1569.62	0.641566	0.64098	0.477637	14	0.50034	11	0	38.1487	0.000306156
2	1	0	1	0	1	1582.07	0.696192	0.695579	1.8453	14	0.515143	11	0	50.5946	0.00128356
2	1	0	1	0	1	1594.75	0.632778	0.632195	0.317193	14	0.527272	11	0	63.2775	0.000200528
2	1	0	0	0	1	1607.44	0.569363	0.5687	0.0018971	14	0.528566	11	0	75.9605	1.07888e-06
2	0	0	1	0	1	1620.12	0.505948	0.505352	-0.0230048	14	0.528375	11	0	11.9839	-1.16255e-05
2	1	0	0	0	0	1632.57	0.456315	0.455706	0.0299005	15	0.52811	11	0	1.0985	1.36258e-05
2	1	0	1	0	0	1645.25	0.519729	0.519135	0.030299	15	0.528498	11	0	13.7814	1.57293e-05
2	1	0	1	0	0	1657.93	0.583144	0.582498	0.0698704	15	0.529032	11	0	26.4644	4.06994e-05
2	1	0	1	0	0	1670.62	0.646559	0.645982	0.549252	15	0.531938	11	0	39.1474	0.000354807
2	1	0	1	0	0	1683.06	0.691199	0.690601	1.65681	15	0.547775	11	0	51.5932	0.0011442
2	1	0	1	0	0	1695.74	0.627784	0.62715	0.255393	15	0.558306	11	0	64.2762	0.00016017
2	1	0	1	0	0	1708.43	0.56437	0.563753	-0.00177249	15	0.559291	11	0	0.4993	-9.99248e-07
2	0	0	0	0	0	1721.11	0.500955	0.500335	-0.0236851	15	0.559075	11	0	13.1823	-1.18505e-05
2	0	0	1	0	0	1731.3	0.449999	0.449461	-0.0286956	15	0.558806	11	0	23.3683	-1.28976e-05

File: 20240527_2-145_K_added_C02.mpt
EC-Lab ASCII FILE
Nb header lines : 66

Cyclic Voltammetry Advanced

Run on channel : 2 (SN 68855)
User :
CE vs. WE compliance from -10 V to 10 V
Electrode connection : standard
Potential control : Ewe
Ewe ctrl range : min = -1.00 V, max = 1.00 V
Safety Limits :
	Do not start on E overload
Acquisition started on : 05/28/2024 11:49:31.779
Loaded Setting File :  C:\Users\HZ-7000\Documents\EC-Lab\Data\Yatsuzuka\20240502_2-136_UPS_preparation\20240502_2-136_UPS_preparation_K-1.mps
Saved on :
	File : 20240527_2-145_K_added_C02.mpr
	Directory : C:\Users\HZ-7000\Documents\EC-Lab\Data\Yatsuzuka\20240527_2-145_re-addition\
	Host : 192.109.209.100
Device : SP-150e (SN .003466)
Address : 192.109.209.128
EC-Lab for windows v11.50 (software)
Internet server v11.50 (firmware)
Command interpretor v11.50 (firmware)
Electrode material :
Initial state :
Electrolyte :
Comments :
Electrode surface area : 0.001 cm2
Characteristic mass : 0.001 g
Equivalent Weight : 0.000 g/eq.
Density : 0.000 g/cm3
Volume (V) : 0.001 cm3
Cycle Definition : Charge/Discharge alternance
Ei (V)              0.450
vs.                 Ref
ti (h:m:s)          0:00:10.0000
dti (s)             0.0000
dE/dt               5.000
dE/dt unit          mV/s
E1 (V)              0.700
vs.                 Ref
t1 (h:m:s)          0:00:0.0000
dt1 (s)             0.1000
Step percent        50
N                   10
E range min (V)     -1.000
E range max (V)     1.000
I Range             10 mA
I Range min         Unset
I Range max         Unset
I Range init        Unset
Bandwidth           5
E2 (V)              0.450
vs.                 Ref
t2 (h:m:s)          0:00:0.0000
dt2 (s)             0.1000
nc cycles           0
nr                  1
Reverse Scan        0
Ef (V)              0.000
vs.                 Eoc
tf (h:m:s)          0:00:0.0000
dtf (s)             0.1000

mode	ox/red	error	control changes	Ns changes	counter inc.	time/s	control/V	Ewe/V	<I>/mA	cycle number	(Q-Qo)/C	I Range	Ns	step time/s	P/W
2	1	0	1	0	0	0.000000000000000E+000	0.449949	0.449251	0.000263607	1	0.0000000E+000	11	0	0.000000000000000E+000	1.18426e-07
2	1	0	1	0	0	0.8538	0.454218	0.453583	0.029796	1	2.34273e-05	11	0	0.799	1.3515e-05
2	1	0	1	0	0	1.7525	0.458711	0.458108	0.0304605	1	5.16798e-05	11	0	1.6977	1.39542e-05
2	1	0	1	0	0	2.6513	0.463205	0.462557	0.0307283	1	8.02676e-05	11	0	2.5965	1.42136e-05
2	1	0	1	0	0	3.5501	0.467699	0.467077	0.031025	1	0.000108872	11	0	3.4953	1.44911e-05
2	1	0	1	0	0	4.4489	0.472193	0.471575	0.0316	1	0.000137449	11	0	4.3941	1.49018e-05
2	1	0	1	0	0	5.3477	0.476687	0.476072	0.0319905	1	0.000166053	11	0	5.2929	1.52298e-05
2	1	0	1	0	0	6.2465	0.481181	0.480582	0.0326653	1	0.000194509	11	0	6.1917	1.56983e-05
2	1	0	1	0	0	7.1453	0.485675	0.485031	0.0326562	1	0.000222948	11	0	7.0905	1.58393e-05
2	1	0	1	0	0	8.0441	0.490169	0.489509	0.0325021	1	0.000251268	11	0	7.9893	1.591e-05
2	1	0	1	0	0	8.9429	0.494663	0.494045	0.0325854	1	0.000279475	11	0	8.8881	1.60986e-05
2	1	0	1	0	0	9.8417	0.499157	0.498535	0.0325506	1	0.0003077	11	0	9.7869	1.62276e-05
2	1	0	1	0	0	10.7405	0.503651	0.503019	0.0326225	1	0.000335988	11	0	10.6857	1.64097e-05
2	1	0	1	0	0	11.6393	0.508146	0.507523	0.0326034	1	0.000364372	11	0	11.5845	1.6547e-05
2	1	0	1	0	0	12.5381	0.51264	0.512012	0.0321308	1	0.000392882	11	0	12.4833	1.64514e-05
2	1	0	1	0	0	13.4369	0.517134	0.516514	0.0318817	1	0.000421579	11	0	13.3821	1.64674e-05
2	1	0	1	0	0	14.3357	0.521627	0.521026	0.0319755	1	0.000450438	11	0	14.2809	1.66601e-05
2	1	0	1	0	0	15.2345	0.526121	0.525526	0.032073	1	0.000479613	11	0	15.1797	1.68552e-05
2	1	0	0	0	0	16.1332	0.530615	0.53002	0.0325283	1	0.000509222	11	0	16.0784	1.72407e-05
2	1	0	0	0	0	17.032	0.535109	0.534514	0.0327839	1	0.000539475	11	0	16.9772	1.75235e-05
2	1	0	0	0	0	17.9308	0.539603	0.538967	0.0335062	1	0.000570468	11	0	17.876	1.80587e-05
2	1	0	0	0	0	18.8296	0.544097	0.543458	0.0346509	1	0.000602356	11	0	18.7748	1.88313e-05
2	1	0	0	0	0	19.7284	0.548591	0.547942	0.036079	1	0.000635399	11	0	19.6736	1.97692e-05
2	1	0	0	0	0	20.6272	0.553085	0.552487	0.0384791	1	0.000669913	11	0	20.5724	2.12592e-05
2	1	0	0	0	0	21.526	0.557579	0.556975	0.0407214	1	0.000706259	11	0	21.4712	2.26808e-05
2	1	0	0	0	0	22.4248	0.562073	0.561448	0.0435054	1	0.000744708	11	0	22.37	2.4426e-05
2	1	0	0	0	0	23.3236	0.566567	0.565958	0.0474274	1	0.000785866	11	0	23.2688	2.68419e-05
2	1	0	1	0	0	24.2223	0.57106	0.570437	0.0520142	1	0.000830338	11	0	24.1675	2.96708e-05
2	1	0	1	0	0	25.1211	0.575554	0.574947	0.0575192	1	0.000878928	11	0	25.0663	3.30705e-05
2	1	0	1	0	0	26.0199	0.580048	0.579458	0.0638701	1	0.000932434	11	0	25.9651	3.701e-05
2	1	0	1	0	0	26.9187	0.584542	0.583943	0.0710794	1	0.00099191	11	0	26.8639	4.15063e-05
2	1	0	1	0	0	27.8175	0.589036	0.588434	0.0800999	1	0.00105878	11	0	27.7627	4.71335e-05
2	1	0	1	0	0	28.7163	0.59353	0.592926	0.0908217	1	0.00113456	11	0	28.6615	5.38506e-05
2	1	0	1	0	0	29.6151	0.598024	0.59741	0.103755	1	0.00122109	11	0	29.5603	6.19844e-05
2	1	0	1	0	0	30.5139	0.602518	0.601892	0.119518	1	0.00132078	11	0	30.4591	7.19372e-05
2	1	0	1	0	0	31.4127	0.607012	0.606374	0.137643	1	0.00143618	11	0	31.3579	8.3463e-05
2	1	0	1	0	0	32.3115	0.611506	0.610937	0.159836	1	0.00157018	11	0	32.2567	9.76498e-05
2	1	0	1	0	0	33.2103	0.616	0.615412	0.186346	1	0.00172634	11	0	33.1555	0.00011468
2	1	0	1	0	0	34.1091	0.620494	0.61985	0.218043	1	0.00190892	11	0	34.0543	0.000135154
2	1	0	1	0	0	35.0079	0.624988	0.624404	0.255194	1	0.00212251	11	0	34.9531	0.000159344
2	1	0	1	0	0	35.9067	0.629482	0.628924	0.297601	1	0.00237175	11	0	35.8519	0.000187169
2	1	0	1	0	0	36.8055	0.633976	0.633363	0.346713	1	0.00266216	11	0	36.7507	0.000219595
2	1	0	1	0	0	37.7043	0.63847	0.637879	0.402786	1	0.00299997	11	0	37.6495	0.000256929
2	1	0	1	0	0	38.603	0.642964	0.642356	0.465358	1	0.00339093	11	0	38.5482	0.000298926
2	1	0	1	0	0	39.5018	0.647458	0.646889	0.536188	1	0.00384154	11	0	39.447	0.000346855
2	1	0	1	0	0	40.4006	0.651952	0.651391	0.615903	1	0.00435946	11	0	40.3458	0.000401194
2	1	0	1	0	0	41.2994	0.656446	0.655825	0.700706	1	0.00495167	11	0	41.2446	0.000459541
2	1	0	1	0	0	42.1982	0.66094	0.660287	0.792724	1	0.00562292	11	0	42.1434	0.000523426
2	1	0	1	0	0	43.097	0.665434	0.664813	0.89454	1	0.00638092	11	0	43.0422	0.000594702
2	1	0	1	0	0	43.9958	0.669928	0.669351	1.00222	1	0.0072332	11	0	43.941	0.000670837
2	1	0	1	0	0	44.8946	0.674422	0.673843	1.11917	1	0.00818649	11	0	44.8398	0.000754147
2	1	0	1	0	0	45.7934	0.678916	0.67833	1.24081	1	0.00924617	11	0	45.7386	0.00084168
2	1	0	1	0	0	46.6922	0.68341	0.682817	1.37051	1	0.0104197	11	0	46.6374	0.000935809
2	1	0	1	0	0	47.591	0.687904	0.687317	1.49996	1	0.0117095	11	0	47.5362	0.00103095
2	1	0	1	0	0	48.4897	0.692397	0.691779	1.6404	1	0.0131199	11	0	48.4349	0.0011348
2	1	0	1	0	0	49.3885	0.696891	0.696268	1.77959	1	0.0146563	11	0	49.3337	0.00123907
2	1	0	1	0	0	50.0702	0.699688	0.699104	1.86445	1	0.0159046	11	0	50.0154	0.00130344
2	1	0	1	0	0	50.969	0.695194	0.694595	1.6956	1	0.0175016	11	0	50.9142	0.00117776
2	1	0	1	0	0	51.8678	0.6907	0.690127	1.54326	1	0.0189549	11	0	51.813	0.00106504
2	1	0	1	0	0	52.7666	0.686206	0.685589	1.3989	1	0.0202744	11	0	52.7118	0.000959071
2	1	0	1	0	0	53.6653	0.681712	0.681118	1.26692	1	0.0214693	11	0	53.6105	0.000862925
2	1	0	1	0	0	54.5641	0.677218	0.676635	1.14799	1	0.0225514	11	0	54.5093	0.00077677
2	1	0	1	0	0	55.4629	0.672725	0.672085	1.02979	1	0.0235286	11	0	55.4081	0.000692105
[...]
2	1	0	1	0	0	62.6533	0.636772	0.636125	0.335586	1	0.0281522	11	0	62.5985	0.000213475
2	1	0	1	0	0	63.5521	0.632278	0.631663	0.281882	1	0.0284294	11	0	63.4973	0.000178054
2	1	0	1	0	0	64.4509	0.627784	0.627116	0.23472	1	0.0286617	11	0	64.3961	0.000147197
2	1	0	1	0	0	65.3497	0.62329	0.622681	0.194135	1	0.0288545	11	0	65.2949	0.000120884
2	1	0	1	0	0	66.2485	0.618796	0.61816	0.159058	1	0.0290136	11	0	66.1937	9.83235e-05
2	1	0	1	0	0	67.1473	0.614302	0.613715	0.129049	1	0.0291434	11	0	67.0925	7.91993e-05
2	1	0	0	0	0	68.046	0.609809	0.60922	0.103871	1	0.0292486	11	0	67.9912	6.32801e-05
2	1	0	0	0	0	68.9448	0.605315	0.60467	0.0821945	1	0.0293332	11	0	68.89	4.97006e-05
2	1	0	0	0	0	69.8436	0.600821	0.600213	0.0641577	1	0.0293998	11	0	69.7888	3.85083e-05
2	1	0	0	0	0	70.7424	0.596327	0.595723	0.0491636	1	0.0294513	11	0	70.6876	2.92879e-05
2	1	0	0	0	0	71.6412	0.591833	0.591224	0.0365001	1	0.0294902	11	0	71.5864	2.15798e-05
2	1	0	0	0	0	72.54	0.587339	0.586709	0.0263081	1	0.0295188	11	0	72.4852	1.54352e-05
2	1	0	0	0	0	73.4388	0.582845	0.582213	0.0179377	1	0.0295388	11	0	73.384	1.04436e-05
2	1	0	0	0	0	74.3376	0.578351	0.577732	0.0109981	1	0.0295517	11	0	74.2828	6.35395e-06
2	1	0	0	0	0	75.2364	0.573857	0.573239	0.00535614	1	0.0295586	11	0	75.1816	3.07035e-06
2	1	0	0	0	0	76.1352	0.569363	0.568733	0.000542147	1	0.0295605	11	0	0.0999	3.08337e-07
2	1	0	0	0	0	77.034	0.564869	0.564254	-0.00334437	1	0.0295584	11	0	0.4994	-1.88707e-06
2	1	0	1	0	0	77.9327	0.560376	0.559751	-0.00629022	1	0.0295532	11	0	1.3981	-3.52096e-06
2	0	0	1	0	0	78.8315	0.555881	0.555295	-0.00948513	1	0.0295451	11	0	2.2969	-5.26704e-06
2	0	0	1	0	0	79.7303	0.551387	0.55079	-0.0114903	1	0.0295346	11	0	3.1957	-6.32874e-06
2	0	0	1	0	0	80.6291	0.546893	0.546234	-0.0134773	1	0.029522	11	0	4.0945	-7.36175e-06
2	0	0	1	0	0	81.5279	0.542399	0.54178	-0.0149803	1	0.0295079	11	0	4.9933	-8.116e-06
2	0	0	1	0	0	82.4267	0.537905	0.537262	-0.0166234	1	0.0294923	11	0	5.8921	-8.93111e-06
2	0	0	1	0	0	83.3255	0.533411	0.532783	-0.0180967	1	0.0294756	11	0	6.7909	-9.6416e-06
2	0	0	1	0	0	84.2243	0.528917	0.528304	-0.019124	1	0.0294579	11	0	7.6897	-1.01033e-05
2	0	0	1	0	0	85.1231	0.524423	0.523796	-0.0199286	1	0.0294394	11	0	8.5885	-1.04385e-05
2	0	0	1	0	0	86.0219	0.519929	0.519315	-0.0209671	1	0.0294201	11	0	9.4873	-1.08885e-05
2	0	0	1	0	0	86.9207	0.515435	0.514846	-0.0218575	1	0.0294003	11	0	10.3861	-1.12532e-05
2	0	0	1	0	0	87.8195	0.510941	0.510313	-0.0228943	1	0.0293798	11	0	11.2849	-1.16833e-05
2	0	0	1	0	0	88.7183	0.506447	0.505793	-0.0236956	1	0.0293588	11	0	12.1837	-1.19851e-05
2	0	0	1	0	0	89.6171	0.501953	0.501312	-0.0242177	1	0.0293374	11	0	13.0825	-1.21406e-05
2	0	0	1	0	0	90.5159	0.497459	0.496826	-0.0249838	1	0.0293155	11	0	13.9813	-1.24126e-05
2	0	0	1	0	0	91.4147	0.492965	0.492323	-0.0253906	1	0.0292934	11	0	14.8801	-1.25004e-05
2	0	0	1	0	0	92.3134	0.488472	0.487861	-0.0262059	1	0.029271	11	0	15.7788	-1.27848e-05
2	0	0	1	0	0	93.2122	0.483978	0.483373	-0.0270445	1	0.0292482	11	0	16.6776	-1.30726e-05
2	0	0	1	0	0	94.111	0.479484	0.478834	-0.0274574	1	0.0292248	11	0	17.5764	-1.31475e-05
2	0	0	1	0	0	95.0098	0.47499	0.474391	-0.027915	1	0.029201	11	0	18.4752	-1.32426e-05
2	0	0	1	0	0	95.9086	0.470496	0.469871	-0.0283915	1	0.0291768	11	0	19.374	-1.33404e-05
2	0	0	1	0	0	96.8074	0.466002	0.465383	-0.0288067	1	0.0291522	11	0	20.2728	-1.34061e-05
2	0	0	1	0	0	97.7062	0.461508	0.460917	-0.0293845	1	0.0291273	11	0	21.1716	-1.35438e-05
2	0	0	1	0	0	98.605	0.457014	0.45637	-0.0293478	1	0.029102	11	0	22.0704	-1.33935e-05
2	0	0	1	0	0	99.5038	0.45252	0.451937	-0.0291593	1	0.0290765	11	0	22.9692	-1.31782e-05
2	0	0	1	0	0	100.003	0.449999	0.449403	-0.0384326	1	0.029062	11	0	23.4682	-1.72718e-05