Folder: SI_for_publications/ACS_Catal_2026/Figures_Na_K/main_figures/data/EC/20240527_2-145_re-addition (part 3)

File: 20240527_2-145_Na_added_C02.mpt
EC-Lab ASCII FILE
Nb header lines : 66

Cyclic Voltammetry Advanced

Run on channel : 2 (SN 68855)
User :
CE vs. WE compliance from -10 V to 10 V
Electrode connection : standard
Potential control : Ewe
Ewe ctrl range : min = -1.00 V, max = 1.00 V
Safety Limits :
	Do not start on E overload
Acquisition started on : 05/28/2024 11:52:02.544
Loaded Setting File :  C:\Users\HZ-7000\Documents\EC-Lab\Data\Yatsuzuka\20240502_2-136_UPS_preparation\20240502_2-136_UPS_preparation_K-1.mps
Saved on :
	File : 20240527_2-145_Na_added_C02.mpr
	Directory : C:\Users\HZ-7000\Documents\EC-Lab\Data\Yatsuzuka\20240527_2-145_re-addition\
	Host : 192.109.209.100
Device : SP-150e (SN .003466)
Address : 192.109.209.128
EC-Lab for windows v11.50 (software)
Internet server v11.50 (firmware)
Command interpretor v11.50 (firmware)
Electrode material :
Initial state :
Electrolyte :
Comments :
Electrode surface area : 0.001 cm2
Characteristic mass : 0.001 g
Equivalent Weight : 0.000 g/eq.
Density : 0.000 g/cm3
Volume (V) : 0.001 cm3
Cycle Definition : Charge/Discharge alternance
Ei (V)              0.450
vs.                 Ref
ti (h:m:s)          0:00:10.0000
dti (s)             0.0000
dE/dt               5.000
dE/dt unit          mV/s
E1 (V)              0.700
vs.                 Ref
t1 (h:m:s)          0:00:0.0000
dt1 (s)             0.1000
Step percent        50
N                   10
E range min (V)     -1.000
E range max (V)     1.000
I Range             10 mA
I Range min         Unset
I Range max         Unset
I Range init        Unset
Bandwidth           5
E2 (V)              0.450
vs.                 Ref
t2 (h:m:s)          0:00:0.0000
dt2 (s)             0.1000
nc cycles           0
nr                  1
Reverse Scan        0
Ef (V)              0.000
vs.                 Eoc
tf (h:m:s)          0:00:0.0000
dtf (s)             0.1000

mode	ox/red	error	control changes	Ns changes	counter inc.	time/s	control/V	Ewe/V	<I>/mA	cycle number	(Q-Qo)/C	I Range	Ns	step time/s	P/W
2	1	0	1	0	0	0.000000000000000E+000	0.449949	0.449384	0.00293901	1	0.0000000E+000	11	0	0.000000000000000E+000	1.32074e-06
2	1	0	1	0	0	0.8538	0.454218	0.453592	0.0290057	1	2.25267e-05	11	0	0.799	1.31568e-05
2	1	0	1	0	0	1.7525	0.458711	0.458129	0.0298371	1	5.01429e-05	11	0	1.6977	1.36692e-05
2	1	0	1	0	0	2.6513	0.463205	0.462623	0.029656	1	7.80095e-05	11	0	2.5965	1.37195e-05
2	1	0	1	0	0	3.5501	0.467699	0.467079	0.0300375	1	0.000105964	11	0	3.4953	1.40299e-05
2	1	0	1	0	0	4.4489	0.472193	0.471589	0.0305536	1	0.000134008	11	0	4.3941	1.44087e-05
2	1	0	1	0	0	5.3477	0.476687	0.476062	0.0308787	1	0.000162073	11	0	5.2929	1.47002e-05
2	1	0	1	0	0	6.2465	0.481181	0.480571	0.0315513	1	0.00019004	11	0	6.1917	1.51626e-05
2	1	0	1	0	0	7.1453	0.485675	0.4851	0.0316471	1	0.000217929	11	0	7.0905	1.5352e-05
2	1	0	1	0	0	8.0441	0.490169	0.489536	0.0317413	1	0.000245759	11	0	7.9893	1.55385e-05
2	1	0	1	0	0	8.9429	0.494663	0.494086	0.0318877	1	0.000273487	11	0	8.8881	1.57553e-05
2	1	0	1	0	0	9.8417	0.499157	0.498526	0.032042	1	0.00030124	11	0	9.7869	1.59738e-05
2	1	0	1	0	0	10.7405	0.503651	0.503035	0.032173	1	0.000329036	11	0	10.6857	1.61842e-05
2	1	0	1	0	0	11.6393	0.508146	0.507523	0.0319666	1	0.000356861	11	0	11.5845	1.62238e-05
2	1	0	1	0	0	12.5381	0.51264	0.512016	0.0314441	1	0.000384768	11	0	12.4833	1.60999e-05
2	1	0	1	0	0	13.4369	0.517134	0.516536	0.0312701	1	0.000412904	11	0	13.3821	1.61521e-05
2	1	0	1	0	0	14.3357	0.521627	0.520989	0.0311068	1	0.000441243	11	0	14.2809	1.62063e-05
2	1	0	1	0	0	15.2345	0.526121	0.52553	0.0310963	1	0.00046987	11	0	15.1797	1.6342e-05
2	1	0	0	0	0	16.1332	0.530615	0.53001	0.0314595	1	0.000498845	11	0	16.0784	1.66739e-05
2	1	0	0	0	0	17.032	0.535109	0.534525	0.0318372	1	0.000528375	11	0	16.9772	1.70178e-05
2	1	0	0	0	0	17.9308	0.539603	0.538987	0.0325507	1	0.000558525	11	0	17.876	1.75444e-05
2	1	0	0	0	0	18.8296	0.544097	0.543464	0.0339507	1	0.000589399	11	0	18.7748	1.8451e-05
2	1	0	0	0	0	19.7284	0.548591	0.547965	0.0353965	1	0.000621266	11	0	19.6736	1.9396e-05
2	1	0	0	0	0	20.6272	0.553085	0.552496	0.0375909	1	0.000654317	11	0	20.5724	2.07688e-05
2	1	0	0	0	0	21.526	0.557579	0.556991	0.0397196	1	0.000688743	11	0	21.4712	2.21234e-05
2	1	0	0	0	0	22.4248	0.562073	0.561458	0.0420979	1	0.000724976	11	0	22.37	2.36362e-05
2	1	0	0	0	0	23.3236	0.566567	0.565985	0.0455015	1	0.000763512	11	0	23.2688	2.57532e-05
2	1	0	1	0	0	24.2223	0.57106	0.570431	0.048762	1	0.000804781	11	0	24.1675	2.78153e-05
2	1	0	1	0	0	25.1211	0.575554	0.574954	0.0527937	1	0.000849352	11	0	25.0663	3.03539e-05
2	1	0	1	0	0	26.0199	0.580048	0.57944	0.0573785	1	0.000897888	11	0	25.9651	3.32474e-05
2	1	0	1	0	0	26.9187	0.584542	0.583965	0.0626479	1	0.000951303	11	0	26.8639	3.65842e-05
2	1	0	1	0	0	27.8175	0.589036	0.588478	0.0694886	1	0.00101067	11	0	27.7627	4.08926e-05
2	1	0	1	0	0	28.7163	0.59353	0.592928	0.0778158	1	0.00107732	11	0	28.6615	4.61392e-05
2	1	0	1	0	0	29.6151	0.598024	0.597375	0.088125	1	0.00115275	11	0	29.5603	5.26437e-05
2	1	0	1	0	0	30.5139	0.602518	0.601932	0.100879	1	0.00123864	11	0	30.4591	6.0722e-05
2	1	0	1	0	0	31.4127	0.607012	0.606399	0.115894	1	0.00133705	11	0	31.3579	7.02782e-05
2	1	0	1	0	0	32.3115	0.611506	0.610937	0.134237	1	0.00145039	11	0	32.2567	8.20105e-05
2	1	0	1	0	0	33.2103	0.616	0.615441	0.156006	1	0.00158138	11	0	33.1555	9.60126e-05
2	1	0	1	0	0	34.1091	0.620494	0.619893	0.181784	1	0.00173323	11	0	34.0543	0.000112686
2	1	0	1	0	0	35.0079	0.624988	0.624385	0.212301	1	0.00190976	11	0	34.9531	0.000132557
2	1	0	1	0	0	35.9067	0.629482	0.628855	0.24692	1	0.00211513	11	0	35.8519	0.000155277
2	1	0	1	0	0	36.8055	0.633976	0.633348	0.286669	1	0.00235371	11	0	36.7507	0.000181561
2	1	0	1	0	0	37.7043	0.63847	0.637893	0.332622	1	0.00263087	11	0	37.6495	0.000212177
2	1	0	1	0	0	38.603	0.642964	0.642406	0.383914	1	0.00295179	11	0	38.5482	0.000246629
2	1	0	1	0	0	39.5018	0.647458	0.646885	0.441977	1	0.00332234	11	0	39.447	0.000285908
2	1	0	1	0	0	40.4006	0.651952	0.651389	0.506652	1	0.00374845	11	0	40.3458	0.000330028
2	1	0	1	0	0	41.2994	0.656446	0.655841	0.577957	1	0.00423637	11	0	41.2446	0.000379048
2	1	0	1	0	0	42.1982	0.66094	0.660361	0.656971	1	0.00479236	11	0	42.1434	0.000433838
2	1	0	1	0	0	43.097	0.665434	0.664825	0.742146	1	0.00542228	11	0	43.0422	0.000493397
2	1	0	1	0	0	43.9958	0.669928	0.669337	0.834281	1	0.00613178	11	0	43.941	0.000558415
2	1	0	1	0	0	44.8946	0.674422	0.673807	0.933658	1	0.00692675	11	0	44.8398	0.000629105
2	1	0	1	0	0	45.7934	0.678916	0.6783	1.04605	1	0.00781551	11	0	45.7386	0.000709536
2	1	0	1	0	0	46.6922	0.68341	0.682789	1.16034	1	0.0088072	11	0	46.6374	0.000792267
2	1	0	1	0	0	47.591	0.687904	0.687277	1.281	1	0.00990332	11	0	47.5362	0.000880403
2	1	0	1	0	0	48.4897	0.692397	0.69181	1.40394	1	0.0111089	11	0	48.4349	0.000971257
2	1	0	1	0	0	49.3885	0.696891	0.696303	1.53425	1	0.0124291	11	0	49.3337	0.0010683
2	1	0	1	0	0	50.0702	0.699688	0.699072	1.60823	1	0.0135072	11	0	50.0154	0.00112427
2	1	0	1	0	0	50.969	0.695194	0.694563	1.45763	1	0.0148822	11	0	50.9142	0.00101241
2	1	0	1	0	0	51.8678	0.6907	0.690135	1.31469	1	0.0161263	11	0	51.813	0.000907316
2	1	0	1	0	0	52.7666	0.686206	0.685648	1.18377	1	0.017247	11	0	52.7118	0.000811648
2	1	0	1	0	0	53.6653	0.681712	0.68114	1.06097	1	0.0182551	11	0	53.6105	0.00072267
2	1	0	1	0	0	54.5641	0.677218	0.676602	0.947581	1	0.0191578	11	0	54.5093	0.000641136
[...]
2	1	0	1	0	0	63.5521	0.632278	0.631688	0.220061	1	0.0238749	11	0	63.4973	0.00013901
2	1	0	1	0	0	64.4509	0.627784	0.627175	0.181664	1	0.0240551	11	0	64.3961	0.000113935
2	1	0	1	0	0	65.3497	0.62329	0.622687	0.149192	1	0.0242039	11	0	65.2949	9.28996e-05
2	1	0	1	0	0	66.2485	0.618796	0.618192	0.12171	1	0.0243261	11	0	66.1937	7.52401e-05
2	1	0	1	0	0	67.1473	0.614302	0.613731	0.0980488	1	0.0244255	11	0	67.0925	6.01756e-05
2	1	0	0	0	0	68.046	0.609809	0.609187	0.078278	1	0.0245054	11	0	67.9912	4.7686e-05
2	1	0	0	0	0	68.9448	0.605315	0.604741	0.0619134	1	0.0245687	11	0	68.89	3.74416e-05
2	1	0	0	0	0	69.8436	0.600821	0.60024	0.0484858	1	0.0246181	11	0	69.7888	2.91031e-05
2	1	0	0	0	0	70.7424	0.596327	0.595734	0.0371488	1	0.0246556	11	0	70.6876	2.21308e-05
2	1	0	0	0	0	71.6412	0.591833	0.591215	0.0271125	1	0.0246833	11	0	71.5864	1.60293e-05
2	1	0	0	0	0	72.54	0.587339	0.586737	0.0188319	1	0.0247025	11	0	72.4852	1.10494e-05
2	1	0	0	0	0	73.4388	0.582845	0.582244	0.0116277	1	0.0247149	11	0	73.384	6.77017e-06
2	1	0	0	0	0	74.3376	0.578351	0.57773	0.00526568	1	0.0247216	11	0	74.2828	3.04214e-06
2	1	0	0	0	0	75.2364	0.573857	0.573218	3.92563e-05	1	0.0247234	11	0	0.0999	2.25024e-08
2	0	0	0	0	0	76.1352	0.569363	0.568769	-0.00465353	1	0.0247212	11	0	0.6991	-2.64679e-06
2	0	0	0	0	0	77.034	0.564869	0.564268	-0.00839901	1	0.0247157	11	0	1.5979	-4.73929e-06
2	0	0	1	0	0	77.9327	0.560376	0.559819	-0.0115468	1	0.0247075	11	0	2.4966	-6.46409e-06
2	0	0	1	0	0	78.8315	0.555881	0.555256	-0.0142783	1	0.024697	11	0	3.3954	-7.92813e-06
2	0	0	1	0	0	79.7303	0.551387	0.550761	-0.0156809	1	0.0246847	11	0	4.2942	-8.63641e-06
2	0	0	1	0	0	80.6291	0.546893	0.546251	-0.0170357	1	0.0246706	11	0	5.193	-9.30577e-06
2	0	0	1	0	0	81.5279	0.542399	0.541727	-0.0180037	1	0.0246552	11	0	6.0918	-9.75309e-06
2	0	0	1	0	0	82.4267	0.537905	0.537302	-0.0186222	1	0.0246386	11	0	6.9906	-1.00057e-05
2	0	0	1	0	0	83.3255	0.533411	0.532826	-0.0194644	1	0.024621	11	0	7.8894	-1.03712e-05
2	0	0	1	0	0	84.2243	0.528917	0.528304	-0.0198961	1	0.0246025	11	0	8.7882	-1.05112e-05
2	0	0	1	0	0	85.1231	0.524423	0.523835	-0.0204045	1	0.0245833	11	0	9.687	-1.06886e-05
2	0	0	1	0	0	86.0219	0.519929	0.519303	-0.0211126	1	0.0245633	11	0	10.5858	-1.09638e-05
2	0	0	1	0	0	86.9207	0.515435	0.514771	-0.0218968	1	0.0245429	11	0	11.4846	-1.12718e-05
2	0	0	1	0	0	87.8195	0.510941	0.510315	-0.0228846	1	0.0245219	11	0	12.3834	-1.16783e-05
2	0	0	1	0	0	88.7183	0.506447	0.505851	-0.0238834	1	0.0245005	11	0	13.2822	-1.20815e-05
2	0	0	1	0	0	89.6171	0.501953	0.501329	-0.0245489	1	0.0244787	11	0	14.181	-1.2307e-05
2	0	0	1	0	0	90.5159	0.497459	0.496821	-0.0257044	1	0.0244565	11	0	15.0798	-1.27705e-05
2	0	0	1	0	0	91.4147	0.492965	0.492341	-0.0264678	1	0.0244339	11	0	15.9786	-1.30312e-05
2	0	0	1	0	0	92.3134	0.488472	0.487812	-0.0270213	1	0.0244109	11	0	16.8773	-1.31813e-05
2	0	0	1	0	0	93.2122	0.483978	0.483349	-0.0275961	1	0.0243876	11	0	17.7761	-1.33386e-05
2	0	0	1	0	0	94.111	0.479484	0.478864	-0.0275584	1	0.024364	11	0	18.6749	-1.31967e-05
2	0	0	1	0	0	95.0098	0.47499	0.474357	-0.0274681	1	0.0243399	11	0	19.5737	-1.30297e-05
2	0	0	1	0	0	95.9086	0.470496	0.469869	-0.0275071	1	0.0243154	11	0	20.4725	-1.29247e-05
2	0	0	1	0	0	96.8074	0.466002	0.465337	-0.0273153	1	0.0242906	11	0	21.3713	-1.27108e-05
2	0	0	1	0	0	97.7062	0.461508	0.460901	-0.0275341	1	0.0242654	11	0	22.2701	-1.26905e-05
2	0	0	1	0	0	98.605	0.457014	0.456403	-0.0273297	1	0.0242399	11	0	23.1689	-1.24734e-05
2	0	0	1	0	0	99.5038	0.45252	0.451914	-0.0275052	1	0.024214	11	0	24.0677	-1.243e-05
2	0	0	1	0	0	100.003	0.449999	0.449365	-0.0234116	1	0.0241995	11	0	24.5667	-1.05203e-05

File: 20240527_2-145_Na_replaced_C02.mpt
EC-Lab ASCII FILE
Nb header lines : 66

Cyclic Voltammetry Advanced

Run on channel : 2 (SN 68855)
User :
CE vs. WE compliance from -10 V to 10 V
Electrode connection : standard
Potential control : Ewe
Ewe ctrl range : min = -1.00 V, max = 1.00 V
Safety Limits :
	Do not start on E overload
Acquisition started on : 05/28/2024 11:57:39.613
Loaded Setting File :  C:\Users\HZ-7000\Documents\EC-Lab\Data\Yatsuzuka\20240502_2-136_UPS_preparation\20240502_2-136_UPS_preparation_K-1.mps
Saved on :
	File : 20240527_2-145_Na_replaced_C02.mpr
	Directory : C:\Users\HZ-7000\Documents\EC-Lab\Data\Yatsuzuka\20240527_2-145_re-addition\
	Host : 192.109.209.100
Device : SP-150e (SN .003466)
Address : 192.109.209.128
EC-Lab for windows v11.50 (software)
Internet server v11.50 (firmware)
Command interpretor v11.50 (firmware)
Electrode material :
Initial state :
Electrolyte :
Comments :
Electrode surface area : 0.001 cm2
Characteristic mass : 0.001 g
Equivalent Weight : 0.000 g/eq.
Density : 0.000 g/cm3
Volume (V) : 0.001 cm3
Cycle Definition : Charge/Discharge alternance
Ei (V)              0.450
vs.                 Ref
ti (h:m:s)          0:00:10.0000
dti (s)             0.0000
dE/dt               5.000
dE/dt unit          mV/s
E1 (V)              0.700
vs.                 Ref
t1 (h:m:s)          0:00:0.0000
dt1 (s)             0.1000
Step percent        50
N                   10
E range min (V)     -1.000
E range max (V)     1.000
I Range             10 mA
I Range min         Unset
I Range max         Unset
I Range init        Unset
Bandwidth           5
E2 (V)              0.450
vs.                 Ref
t2 (h:m:s)          0:00:0.0000
dt2 (s)             0.1000
nc cycles           0
nr                  1
Reverse Scan        0
Ef (V)              0.000
vs.                 Eoc
tf (h:m:s)          0:00:0.0000
dtf (s)             0.1000

mode	ox/red	error	control changes	Ns changes	counter inc.	time/s	control/V	Ewe/V	<I>/mA	cycle number	(Q-Qo)/C	I Range	Ns	step time/s	P/W
2	0	0	1	0	0	0.000000000000000E+000	0.449949	0.449265	-0.044199	1	0.0000000E+000	11	0	0.000000000000000E+000	-1.98571e-05
2	1	0	1	0	0	0.8538	0.454218	0.453539	0.0302686	1	2.19864e-05	11	0	0.799	1.3728e-05
2	1	0	1	0	0	1.7525	0.458711	0.458017	0.0330791	1	4.99284e-05	11	0	1.6977	1.51508e-05
2	1	0	1	0	0	2.6513	0.463205	0.462521	0.0302992	1	7.81285e-05	11	0	2.5965	1.4014e-05
2	1	0	1	0	0	3.5501	0.467699	0.466971	0.031144	1	0.000106673	11	0	3.4953	1.45434e-05
2	1	0	1	0	0	4.4489	0.472193	0.471486	0.0333682	1	0.000135183	11	0	4.3941	1.57327e-05
2	1	0	1	0	0	5.3477	0.476687	0.475958	0.0302171	1	0.000163706	11	0	5.2929	1.43821e-05
2	1	0	1	0	0	6.2465	0.481181	0.480465	0.032825	1	0.00019242	11	0	6.1917	1.57713e-05
2	0	0	1	0	0	7.1453	0.485675	0.484898	0.0320631	1	0.000220889	11	0	7.0905	1.55474e-05
2	0	0	1	0	0	8.0441	0.490169	0.489522	0.0307043	1	0.00024959	11	0	7.9893	1.50304e-05
2	0	0	1	0	0	8.9429	0.494663	0.493882	0.0334443	1	0.000278263	11	0	8.8881	1.65175e-05
2	0	0	1	0	0	9.8417	0.499157	0.498376	0.0307467	1	0.000306802	11	0	9.7869	1.53234e-05
2	0	0	1	0	0	10.7405	0.503651	0.502843	0.0318531	1	0.000335581	11	0	10.6857	1.60171e-05
2	0	0	1	0	0	11.6393	0.508146	0.50738	0.0327336	1	0.000364099	11	0	11.5845	1.66084e-05
2	0	0	1	0	0	12.5381	0.51264	0.511878	0.030283	1	0.000392782	11	0	12.4833	1.55012e-05
2	0	0	1	0	0	13.4369	0.517134	0.516423	0.0330407	1	0.000421658	11	0	13.3821	1.7063e-05
2	0	0	1	0	0	14.3357	0.521627	0.520847	0.0317133	1	0.000450383	11	0	14.2809	1.65178e-05
2	0	0	1	0	0	15.2345	0.526121	0.525369	0.0315792	1	0.000479612	11	0	15.1797	1.65907e-05
2	0	0	0	0	0	16.1332	0.530615	0.529851	0.0343136	1	0.000508887	11	0	16.0784	1.81811e-05
2	0	0	0	0	0	17.032	0.535109	0.534343	0.0317106	1	0.000538509	11	0	16.9772	1.69444e-05
2	1	0	0	0	0	17.9308	0.539603	0.538958	0.0343804	1	0.000568771	11	0	17.876	1.85296e-05
2	1	0	0	0	0	18.8296	0.544097	0.54337	0.0349722	1	0.000599269	11	0	18.7748	1.90028e-05
2	1	0	0	0	0	19.7284	0.548591	0.547951	0.0337209	1	0.000630624	11	0	19.6736	1.84774e-05
2	1	0	0	0	0	20.6272	0.553085	0.552259	0.0376435	1	0.000662764	11	0	20.5724	2.0789e-05
2	1	0	0	0	0	21.526	0.557579	0.556897	0.0365172	1	0.00069561	11	0	21.4712	2.03363e-05
2	1	0	0	0	0	22.4248	0.562073	0.561342	0.0379725	1	0.000729851	11	0	22.37	2.13155e-05
2	1	0	0	0	0	23.3236	0.566567	0.565804	0.0416298	1	0.000765188	11	0	23.2688	2.35543e-05
2	1	0	1	0	0	24.2223	0.57106	0.570293	0.0404665	1	0.000802167	11	0	24.1675	2.30778e-05
2	1	0	1	0	0	25.1211	0.575554	0.574806	0.0456199	1	0.000841182	11	0	25.0663	2.62226e-05
2	1	0	1	0	0	26.0199	0.580048	0.579239	0.0473696	1	0.00088223	11	0	25.9651	2.74383e-05
2	1	0	1	0	0	26.9187	0.584542	0.583788	0.0492482	1	0.000926196	11	0	26.8639	2.87505e-05
2	1	0	1	0	0	27.8175	0.589036	0.5883	0.0560219	1	0.000973288	11	0	27.7627	3.29576e-05
2	1	0	1	0	0	28.7163	0.59353	0.592849	0.0578274	1	0.00102424	11	0	28.6615	3.42829e-05
2	1	0	1	0	0	29.6151	0.598024	0.597257	0.064821	1	0.00107995	11	0	29.5603	3.87148e-05
2	1	0	1	0	0	30.5139	0.602518	0.601732	0.0724566	1	0.00114104	11	0	30.4591	4.35994e-05
2	1	0	1	0	0	31.4127	0.607012	0.606338	0.0774844	1	0.00120872	11	0	31.3579	4.69817e-05
2	1	0	1	0	0	32.3115	0.611506	0.610789	0.0897871	1	0.00128417	11	0	32.2567	5.4841e-05
2	1	0	1	0	0	33.2103	0.616	0.615314	0.0995757	1	0.00136847	11	0	33.1555	6.12704e-05
2	1	0	1	0	0	34.1091	0.620494	0.61974	0.110985	1	0.00146356	11	0	34.0543	6.87821e-05
2	1	0	1	0	0	35.0079	0.624988	0.624316	0.128739	1	0.00157099	11	0	34.9531	8.03738e-05
2	1	0	1	0	0	35.9067	0.629482	0.628691	0.143517	1	0.00169275	11	0	35.8519	9.02281e-05
2	1	0	1	0	0	36.8055	0.633976	0.633229	0.163965	1	0.00183144	11	0	36.7507	0.000103828
2	1	0	1	0	0	37.7043	0.63847	0.637702	0.188447	1	0.00198935	11	0	37.6495	0.000120173
2	1	0	1	0	0	38.603	0.642964	0.642236	0.212115	1	0.00216939	11	0	38.5482	0.000136228
2	1	0	1	0	0	39.5018	0.647458	0.646635	0.244609	1	0.002375	11	0	39.447	0.000158173
2	1	0	1	0	0	40.4006	0.651952	0.651269	0.278408	1	0.00260922	11	0	40.3458	0.000181319
2	1	0	1	0	0	41.2994	0.656446	0.655649	0.314994	1	0.00287619	11	0	41.2446	0.000206526
2	1	0	1	0	0	42.1982	0.66094	0.66021	0.360846	1	0.00317983	11	0	42.1434	0.000238234
2	1	0	1	0	0	43.097	0.665434	0.664672	0.406752	1	0.00352416	11	0	43.0422	0.000270357
2	1	0	1	0	0	43.9958	0.669928	0.669153	0.459845	1	0.00391422	11	0	43.941	0.000307706
2	1	0	1	0	0	44.8946	0.674422	0.673743	0.519948	1	0.00435398	11	0	44.8398	0.000350311
2	1	0	1	0	0	45.7934	0.678916	0.678161	0.580553	1	0.0048484	11	0	45.7386	0.000393709
2	1	0	1	0	0	46.6922	0.68341	0.682799	0.651668	1	0.00540246	11	0	46.6374	0.000444958
2	1	0	1	0	0	47.591	0.687904	0.687155	0.724864	1	0.00602055	11	0	47.5362	0.000498094
2	1	0	1	0	0	48.4897	0.692397	0.691639	0.801599	1	0.00670702	11	0	48.4349	0.000554417
2	1	0	1	0	0	49.3885	0.696891	0.696164	0.888818	1	0.00746697	11	0	49.3337	0.000618763
2	1	0	1	0	0	50.0702	0.699688	0.69889	0.932015	1	0.00809377	11	0	50.0154	0.000651376
2	1	0	1	0	0	50.969	0.695194	0.694457	0.832681	1	0.00888458	11	0	50.9142	0.000578261
2	1	0	1	0	0	51.8678	0.6907	0.689886	0.744984	1	0.00959189	11	0	51.813	0.000513954
2	1	0	1	0	0	52.7666	0.686206	0.685492	0.661309	1	0.0102234	11	0	52.7118	0.000453322
2	1	0	1	0	0	53.6653	0.681712	0.680892	0.588366	1	0.0107844	11	0	53.6105	0.000400613
2	1	0	1	0	0	54.5641	0.677218	0.676433	0.516	1	0.0112794	11	0	54.5093	0.000349039
[...]
2	1	0	1	0	0	63.5521	0.632278	0.631541	0.104785	1	0.013716	11	0	63.4973	6.61758e-05
2	1	0	1	0	0	64.4509	0.627784	0.627027	0.082263	1	0.0137999	11	0	64.3961	5.15811e-05
2	1	0	1	0	0	65.3497	0.62329	0.622465	0.0684687	1	0.0138677	11	0	65.2949	4.26194e-05
2	1	0	1	0	0	66.2485	0.618796	0.617994	0.053675	1	0.0139216	11	0	66.1937	3.31708e-05
2	1	0	1	0	0	67.1473	0.614302	0.613543	0.0396354	1	0.0139638	11	0	67.0925	2.4318e-05
2	1	0	0	0	0	68.046	0.609809	0.609141	0.0324985	1	0.0139958	11	0	67.9912	1.97962e-05
2	1	0	0	0	0	68.9448	0.605315	0.604479	0.0204344	1	0.0140191	11	0	68.89	1.23521e-05
2	1	0	0	0	0	69.8436	0.600821	0.600141	0.0142141	1	0.0140352	11	0	69.7888	8.53044e-06
2	1	0	0	0	0	70.7424	0.596327	0.595621	0.00893109	1	0.0140449	11	0	70.6876	5.31954e-06
2	0	0	0	0	0	71.6412	0.591833	0.591054	0.000933194	1	0.0140495	11	0	71.5864	5.51568e-07
2	0	0	0	0	0	72.54	0.587339	0.586605	-0.000655546	1	0.0140497	11	0	0.3995	-3.84547e-07
2	0	0	0	0	0	73.4388	0.582845	0.582036	-0.00620047	1	0.014046	11	0	1.2983	-3.6089e-06
2	0	0	0	0	0	74.3376	0.578351	0.577689	-0.0100937	1	0.0140394	11	0	2.1971	-5.83102e-06
2	0	0	0	0	0	75.2364	0.573857	0.573166	-0.0101808	1	0.01403	11	0	3.0959	-5.83527e-06
2	0	0	0	0	0	76.1352	0.569363	0.568685	-0.0152819	1	0.0140183	11	0	3.9947	-8.69061e-06
2	1	0	0	0	0	77.034	0.564869	0.564141	-0.0152346	1	0.014005	11	0	4.8935	-8.59446e-06
2	1	0	1	0	0	77.9327	0.560376	0.559648	-0.0168179	1	0.0139898	11	0	5.7922	-9.41211e-06
2	1	0	1	0	0	78.8315	0.555881	0.55508	-0.0206062	1	0.0139734	11	0	6.691	-1.14381e-05
2	1	0	1	0	0	79.7303	0.551387	0.550726	-0.0188908	1	0.0139558	11	0	7.5898	-1.04037e-05
2	0	0	1	0	0	80.6291	0.546893	0.54609	-0.0221384	1	0.013937	11	0	8.4886	-1.20895e-05
2	0	0	1	0	0	81.5279	0.542399	0.541602	-0.0221705	1	0.0139175	11	0	9.3874	-1.20076e-05
2	0	0	1	0	0	82.4267	0.537905	0.537119	-0.0220929	1	0.0138971	11	0	10.2862	-1.18665e-05
2	0	0	1	0	0	83.3255	0.533411	0.532654	-0.025441	1	0.0138761	11	0	11.185	-1.35512e-05
2	0	0	1	0	0	84.2243	0.528917	0.52819	-0.0232019	1	0.0138545	11	0	12.0838	-1.2255e-05
2	0	0	1	0	0	85.1231	0.524423	0.523614	-0.0248327	1	0.0138322	11	0	12.9826	-1.30027e-05
2	1	0	1	0	0	86.0219	0.519929	0.519202	-0.0262361	1	0.0138097	11	0	13.8814	-1.36218e-05
2	1	0	1	0	0	86.9207	0.515435	0.514693	-0.0243744	1	0.0137866	11	0	14.7802	-1.25454e-05
2	1	0	1	0	0	87.8195	0.510941	0.510195	-0.0275836	1	0.013763	11	0	15.679	-1.4073e-05
2	1	0	1	0	0	88.7183	0.506447	0.505717	-0.0263746	1	0.0137394	11	0	16.5778	-1.33381e-05
2	0	0	1	0	0	89.6171	0.501953	0.501278	-0.0258785	1	0.0137153	11	0	17.4766	-1.29723e-05
2	0	0	1	0	0	90.5159	0.497459	0.496739	-0.0286471	1	0.013691	11	0	18.3754	-1.42302e-05
2	0	0	1	0	0	91.4147	0.492965	0.492157	-0.0261167	1	0.0136664	11	0	19.2742	-1.28535e-05
2	0	0	1	0	0	92.3134	0.488472	0.487733	-0.0285121	1	0.0136414	11	0	20.1729	-1.39063e-05
2	0	0	1	0	0	93.2122	0.483978	0.483299	-0.0292075	1	0.0136164	11	0	21.0717	-1.41159e-05
2	0	0	1	0	0	94.111	0.479484	0.478674	-0.0269056	1	0.0135908	11	0	21.9705	-1.2879e-05
2	0	0	1	0	0	95.0098	0.47499	0.47419	-0.0299931	1	0.013565	11	0	22.8693	-1.42224e-05
2	0	0	1	0	0	95.9086	0.470496	0.469728	-0.0285894	1	0.013539	11	0	23.7681	-1.34293e-05
2	1	0	1	0	0	96.8074	0.466002	0.465266	-0.0291857	1	0.0135123	11	0	24.6669	-1.35791e-05
2	1	0	1	0	0	97.7062	0.461508	0.460746	-0.031638	1	0.0134856	11	0	25.5657	-1.45771e-05
2	1	0	1	0	0	98.605	0.457014	0.45635	-0.0289685	1	0.0134584	11	0	26.4645	-1.32198e-05
2	1	0	1	0	0	99.5038	0.45252	0.451785	-0.0315242	1	0.0134308	11	0	27.3633	-1.42422e-05
2	1	0	1	0	0	100.003	0.449999	0.449208	0.0303149	1	0.0134155	11	0	27.8623	1.36177e-05