Folder: SI_for_publications/ACS_Catal_2026/Figures_Na_K/main_figures/data/EC/20240126_2-102_Add_Na (part 10)

File: 20240201_2-102_013_preconditioning_elctrode5_02_PEIS_C01.mpt
EC-Lab ASCII FILE
Nb header lines : 63

Potentio Electrochemical Impedance Spectroscopy

Run on channel : 1 (SN 66412)
User :
CE vs. WE compliance from -10 V to 10 V
Electrode connection : standard
Potential control : Ewe
Ewe ctrl range : min = -1.00 V, max = 1.00 V
Safety Limits :
	Do not start on E overload
Acquisition started on : 02/01/2024 14:47:09.385
Loaded Setting File :  C:\Users\NakamuraT\Documents\EC-Lab\Data\Yatsuzuka\20240126_2-102_Add_Na\20240201_2-102_014_preconditioning_elctrode6.mps
Saved on :
	File : 20240201_2-102_013_preconditioning_elctrode5_02_PEIS_C01.mpr
	Directory : C:\Users\NakamuraT\Documents\EC-Lab\Data\Yatsuzuka\20240126_2-102_Add_Na\
	Host : 192.109.209.100
Device : SP-150e (SN .003411)
Address : 192.109.209.236
EC-Lab for windows v11.50 (software)
Internet server v11.50 (firmware)
Command interpretor v11.50 (firmware)
Electrode material :
Initial state :
Electrolyte :
Comments :
Electrode surface area : 0.001 cm2
Characteristic mass : 0.001 g
Equivalent Weight : 0.000 g/eq.
Density : 0.000 g/cm3
Volume (V) : 0.001 cm3
Cycle Definition : Charge/Discharge alternance
Mode                Single sine
E (V)               0.4000
vs.                 Eoc
tE (h:m:s)          0:00:0.0000
record              0
dI                  0.000
unit dI             mA
dt (s)              0.000
fi                  500.000
unit fi             kHz
ff                  1.000
unit ff             Hz
Nd                  6
Points              per decade
spacing             Logarithmic
Va (mV)             10.0
pw                  0.10
Na                  2
corr                0
E range min (V)     -1.000
E range max (V)     1.000
I Range             Auto
Bandwidth           5
nc cycles           0
goto Ns'            0
nr cycles           0
inc. cycle          0

freq/Hz	Re(Z)/Ohm	-Im(Z)/Ohm	|Z|/Ohm	Phase(Z)/deg	time/s	<Ewe>/V	<I>/mA	Cs/uF	Cp/uF	cycle number	I Range	|Ewe|/V	|I|/A	Ns	(Q-Qo)/mA.h	Re(Y)/Ohm-1	Im(Y)/Ohm-1	|Y|/Ohm-1	Phase(Y)/deg	Re(C)/nF	Im(C)/nF	|C|/nF	Phase(C)/deg	Re(M)	Im(M)	|M|	Phase(M)/deg	Re(Permittivity)	Im(Permittivity)	|Permittivity|	Phase(Permittivity)/deg	Re(Resistivity)/Ohm.cm	Im(Resistivity)/Ohm.cm	|Resistivity|/Ohm.cm	Phase(Resistivity)/deg	Re(Conductivity)/mS/cm	Im(Conductivity)/mS/cm	|Conductivity|/mS/cm	Phase(Conductivity)/deg	Tan(Delta)	Loss Angle(Delta)/deg	dq/mA.h
500019	29.2829	-0.199196	29.2835	0.389748	211.21	0.310714	-0.0843823	-1.59791	-7.3938e-05	1	10	0.0101454	0.000346453	0	-9.18356e-05	0.0341481	-0.000232292	0.0341489	-0.389748	-0.073938	10.8693	10.8695	-90.3897	0.0000000E+000	0.0000000E+000	0.0000000E+000	90.3897	0.0000000E+000	0.0000000E+000	0.0000000E+000	-90.3897	0.0000000E+000	0.0000000E+000	0.0000000E+000	0.389748	0.0000000E+000	0.0000000E+000	0.0000000E+000	-0.389748	147.005	89.6103	-9.18356e-05
231063	13.8195	-2.25122	14.0016	9.25234	212.054	0.310614	-0.0396786	-0.305965	-0.00790955	1	10	0.0107692	0.000769141	0	-0.000103402	0.0704911	-0.0114832	0.0714203	-9.25234	-7.90955	48.5539	49.194	-99.2523	0.0000000E+000	0.0000000E+000	0.0000000E+000	99.2523	0.0000000E+000	0.0000000E+000	0.0000000E+000	-99.2523	0.0000000E+000	0.0000000E+000	0.0000000E+000	9.25234	0.0000000E+000	0.0000000E+000	0.0000000E+000	-9.25234	6.13865	80.7477	-4.72531e-06
106786	12.2123	-0.597989	12.227	2.8033	213.034	0.31062	-0.0265538	-2.49236	-0.00596156	1	10	0.0106862	0.000873989	0	-0.000110858	0.0816885	-0.00399996	0.0817864	-2.8033	-5.96157	121.749	121.895	-92.8033	0.0000000E+000	0.0000000E+000	0.0000000E+000	92.8033	0.0000000E+000	0.0000000E+000	0.0000000E+000	-92.8033	0.0000000E+000	0.0000000E+000	0.0000000E+000	2.8033	0.0000000E+000	0.0000000E+000	0.0000000E+000	-2.8033	20.4223	87.1967	-2.7907e-06
49352.4	12.0321	-0.227713	12.0342	1.08422	213.879	0.310622	-0.024212	-14.162	-0.00507064	1	10	0.0104946	0.000872062	0	-0.000115671	0.0830815	-0.00157236	0.0830963	-1.08422	-5.07065	267.927	267.975	-91.0842	0.0000000E+000	0.0000000E+000	0.0000000E+000	91.0842	0.0000000E+000	0.0000000E+000	0.0000000E+000	-91.0842	0.0000000E+000	0.0000000E+000	0.0000000E+000	1.08422	0.0000000E+000	0.0000000E+000	0.0000000E+000	-1.08422	52.8388	88.9158	-3.24277e-06
22806.6	11.9902	-0.102596	11.9906	0.490249	214.724	0.310632	-0.0225663	-68.0191	-0.00497976	1	10	0.0102854	0.000857786	0	-0.000121938	0.0833956	-0.000713588	0.0833987	-0.490249	-4.97976	581.974	581.995	-90.4903	0.0000000E+000	0.0000000E+000	0.0000000E+000	90.4903	0.0000000E+000	0.0000000E+000	0.0000000E+000	-90.4903	0.0000000E+000	0.0000000E+000	0.0000000E+000	0.490249	0.0000000E+000	0.0000000E+000	0.0000000E+000	-0.490249	116.868	89.5097	-2.03649e-06
10540.4	11.9747	-0.0492163	11.9748	0.235486	215.569	0.310634	-0.0213236	-306.8	-0.00518248	1	10	0.0101057	0.000843919	0	-0.000127833	0.0835081	-0.000343221	0.0835089	-0.235486	-5.18254	1260.94	1260.95	-90.2355	0.0000000E+000	0.0000000E+000	0.0000000E+000	90.2355	0.0000000E+000	0.0000000E+000	0.0000000E+000	-90.2355	0.0000000E+000	0.0000000E+000	0.0000000E+000	0.235486	0.0000000E+000	0.0000000E+000	0.0000000E+000	-0.235486	243.307	89.7645	-1.98797e-06
4871.56	11.9754	-0.0207292	11.9755	0.0991778	216.394	0.310642	-0.0187561	-1576.05	-0.00472228	1	10	0.0109861	0.000917387	0	-0.000131948	0.083504	-0.000144544	0.0835042	-0.0991778	-4.72212	2728.1	2728.1	-90.0992	0.0000000E+000	0.0000000E+000	0.0000000E+000	90.0992	0.0000000E+000	0.0000000E+000	0.0000000E+000	-90.0992	0.0000000E+000	0.0000000E+000	0.0000000E+000	0.0991778	0.0000000E+000	0.0000000E+000	0.0000000E+000	-0.0991778	577.707	89.9008	-1.57937e-06
2250.72	11.9793	-0.0100306	11.9793	0.0479752	217.546	0.310658	-0.0158397	-7049.75	-0.00494268	1	10	0.0102376	0.000854613	0	-0.000136675	0.0834775	-6.98979e-05	0.0834775	-0.0479752	-4.94252	5902.94	5902.94	-90.048	0.0000000E+000	0.0000000E+000	0.0000000E+000	90.048	0.0000000E+000	0.0000000E+000	0.0000000E+000	-90.048	0.0000000E+000	0.0000000E+000	0.0000000E+000	0.0479752	0.0000000E+000	0.0000000E+000	0.0000000E+000	-0.0479752	1194.28	89.952	-1.47356e-06
1040.33	11.9644	0.00593016	11.9644	-0.0283986	218.476	0.310657	-0.0160897	25797.7	0.0063377	1	10	0.0102776	0.000859012	0	-0.000140864	0.0835812	4.1427e-05	0.0835812	0.0283986	6.33724	12786.6	12786.6	-89.9716	0.0000000E+000	0.0000000E+000	0.0000000E+000	89.9716	0.0000000E+000	0.0000000E+000	0.0000000E+000	-89.9716	0.0000000E+000	0.0000000E+000	0.0000000E+000	-0.0283986	0.0000000E+000	0.0000000E+000	0.0000000E+000	0.0283986	2017.55	89.9716	-2.77648e-06
480.769	11.9714	0.027603	11.9715	-0.132109	219.406	0.310652	-0.016586	11993	0.0637594	1	10	0.0102953	0.000859983	0	-0.000144216	0.0835317	0.000192602	0.083532	0.132109	63.7604	27652.5	27652.6	-89.8679	0.0000000E+000	0.0000000E+000	0.0000000E+000	89.8679	0.0000000E+000	0.0000000E+000	0.0000000E+000	-89.8679	0.0000000E+000	0.0000000E+000	0.0000000E+000	-0.132109	0.0000000E+000	0.0000000E+000	0.0000000E+000	0.132109	433.701	89.8679	-1.69744e-06
222.061	11.9703	0.0503277	11.9704	-0.240892	220.33	0.310641	-0.0161718	14241	0.251733	1	10	0.0103025	0.000860668	0	-0.000148449	0.0835388	0.00035123	0.0835396	0.240892	251.731	59873.8	59874.3	-89.7591	0.0000000E+000	0.0000000E+000	0.0000000E+000	89.7591	0.0000000E+000	0.0000000E+000	0.0000000E+000	-89.7591	0.0000000E+000	0.0000000E+000	0.0000000E+000	-0.240892	0.0000000E+000	0.0000000E+000	0.0000000E+000	0.240892	237.847	89.7591	-2.56796e-06
102.667	11.9739	0.0987472	11.9743	-0.472499	221.267	0.31066	-0.0172671	15698.7	1.0676	1	10	0.0103037	0.000860484	0	-0.000153165	0.0835091	0.000688687	0.0835119	0.472499	1067.6	129456	129460	-89.5275	0.0000000E+000	0.0000000E+000	0.0000000E+000	89.5275	0.0000000E+000	0.0000000E+000	0.0000000E+000	-89.5275	0.0000000E+000	0.0000000E+000	0.0000000E+000	-0.472499	0.0000000E+000	0.0000000E+000	0.0000000E+000	0.472499	121.258	89.5275	-2.6728e-06
47.4443	11.9902	0.189603	11.9917	-0.905949	222.178	0.310641	-0.0153023	17692.6	4.42301	1	10	0.0103053	0.000859368	0	-0.000158661	0.0833804	0.0013185	0.0833909	0.905949	4423.02	279705	279740	-89.094	0.0000000E+000	0.0000000E+000	0.0000000E+000	89.094	0.0000000E+000	0.0000000E+000	0.0000000E+000	-89.094	0.0000000E+000	0.0000000E+000	0.0000000E+000	-0.905949	0.0000000E+000	0.0000000E+000	0.0000000E+000	0.905949	63.2386	89.094	-2.79863e-06
21.9144	12.0047	0.382689	12.0108	-1.82587	223.046	0.310635	-0.0172932	18977.7	19.2661	1	10	0.0103154	0.000858844	0	-0.000163979	0.0832162	0.00265279	0.0832585	1.82587	19266.1	604363	604670	-88.1741	0.0000000E+000	0.0000000E+000	0.0000000E+000	88.1741	0.0000000E+000	0.0000000E+000	0.0000000E+000	-88.1741	0.0000000E+000	0.0000000E+000	0.0000000E+000	-1.82587	0.0000000E+000	0.0000000E+000	0.0000000E+000	1.82587	31.3693	88.1741	-3.97521e-06
10.1329	12.0221	0.84626	12.0518	-4.02654	224.223	0.31064	-0.00288112	18560.1	91.5133	1	11	0.0103228	0.00085654	0	-0.000160081	0.0827703	0.00582639	0.0829751	4.02654	91513.4	1.30005e+06	1.30326e+06	-85.9735	0.0000000E+000	0.0000000E+000	0.0000000E+000	85.9735	0.0000000E+000	0.0000000E+000	0.0000000E+000	-85.9735	0.0000000E+000	0.0000000E+000	0.0000000E+000	-4.02654	0.0000000E+000	0.0000000E+000	0.0000000E+000	4.02654	14.2061	85.9735	7.2617e-06
4.68375	12.0738	1.80779	12.2084	-8.51552	225.073	0.310651	-0.0074749	18796.6	412.151	1	11	0.0103163	0.000845021	0	-0.000166676	0.0810079	0.0121291	0.0819109	8.51552	412151	2.75266e+06	2.78335e+06	-81.4845	0.0000000E+000	0.0000000E+000	0.0000000E+000	81.4845	0.0000000E+000	0.0000000E+000	0.0000000E+000	-81.4845	0.0000000E+000	0.0000000E+000	0.0000000E+000	-8.51552	0.0000000E+000	0.0000000E+000	0.0000000E+000	8.51552	6.67878	81.4845	-2.75556e-06
2.16533	12.2677	3.95511	12.8895	-17.8693	226.786	0.31066	0.00320619	18583.9	1749.77	1	11	0.0103249	0.000801032	0	-0.000151363	0.0738397	0.0238059	0.0775824	17.8693	1.74977e+06	5.42733e+06	5.70243e+06	-72.1307	0.0000000E+000	0.0000000E+000	0.0000000E+000	72.1307	0.0000000E+000	0.0000000E+000	0.0000000E+000	-72.1307	0.0000000E+000	0.0000000E+000	0.0000000E+000	-17.8693	0.0000000E+000	0.0000000E+000	0.0000000E+000	17.8693	3.10174	72.1307	2.96368e-06
1.00006	12.5074	8.23095	14.9728	-33.3483	230.397	0.310668	-0.000275734	19334.9	5843.02	1	11	0.0103341	0.000690191	0	-0.000191212	0.0557908	0.0367151	0.0667879	33.3483	5.84302e+06	8.87882e+06	1.06289e+07	-56.6517	0.0000000E+000	0.0000000E+000	0.0000000E+000	56.6517	0.0000000E+000	0.0000000E+000	0.0000000E+000	-56.6517	0.0000000E+000	0.0000000E+000	0.0000000E+000	-33.3483	0.0000000E+000	0.0000000E+000	0.0000000E+000	33.3483	1.51956	56.6517	-2.21247e-05

File: 20240201_2-102_014_preconditioning_elctrode6_01_CVA_C02.mpt
EC-Lab ASCII FILE
Nb header lines : 66

Cyclic Voltammetry Advanced

Run on channel : 2 (SN 66414)
User :
CE vs. WE compliance from -10 V to 10 V
Electrode connection : standard
Potential control : Ewe
Ewe ctrl range : min = -1.00 V, max = 1.00 V
Safety Limits :
	Do not start on E overload
Acquisition started on : 02/01/2024 14:41:57.621
Loaded Setting File :  C:\Users\NakamuraT\Documents\EC-Lab\Data\Yatsuzuka\20240126_2-102_Add_Na\20240125_2-102_001_preconditioning_elctrode1.mps
Saved on :
	File : 20240201_2-102_014_preconditioning_elctrode6_01_CVA_C02.mpr
	Directory : C:\Users\NakamuraT\Documents\EC-Lab\Data\Yatsuzuka\20240126_2-102_Add_Na\
	Host : 192.109.209.100
Device : SP-150e (SN .003411)
Address : 192.109.209.236
EC-Lab for windows v11.50 (software)
Internet server v11.50 (firmware)
Command interpretor v11.50 (firmware)
Electrode material :
Initial state :
Electrolyte :
Comments :
Electrode surface area : 0.001 cm2
Characteristic mass : 0.001 g
Equivalent Weight : 0.000 g/eq.
Density : 0.000 g/cm3
Volume (V) : 0.001 cm3
Cycle Definition : Charge/Discharge alternance
Ei (V)              0.350
vs.                 Ref
ti (h:m:s)          0:00:10.0000
dti (s)             1.0000
dE/dt               10.000
dE/dt unit          mV/s
E1 (V)              0.450
vs.                 Ref
t1 (h:m:s)          0:00:0.0000
dt1 (s)             0.1000
Step percent        50
N                   10
E range min (V)     -1.000
E range max (V)     1.000
I Range             Auto
I Range min         Unset
I Range max         Unset
I Range init        Unset
Bandwidth           5
E2 (V)              0.350
vs.                 Ref
t2 (h:m:s)          0:00:0.0000
dt2 (s)             0.1000
nc cycles           9
nr                  1
Reverse Scan        0
Ef (V)              0.000
vs.                 Eoc
tf (h:m:s)          0:00:0.0000
dtf (s)             0.1000

mode	ox/red	error	control changes	Ns changes	counter inc.	time/s	control/V	Ewe/V	<I>/mA	cycle number	(Q-Qo)/C	I Range	Ns	step time/s	P/W
2	1	0	1	0	0	0.000000000000000E+000	0.349999	0.350116	12.5633	1	0.0000000E+000	10	0	0.000000000000000E+000	0.00439863
2	1	0	1	0	0	11.1825	0.361776	0.362018	0.431913	1	0.0144381	12	0	10.1825	0.00015636
2	1	0	1	0	0	12.8829	0.378778	0.379029	0.460817	1	0.0152114	12	0	11.8829	0.000174663
2	1	0	1	0	0	14.5831	0.39578	0.395995	0.455398	1	0.0159888	12	0	13.5831	0.000180335
2	1	0	1	0	0	16.2833	0.412783	0.413059	0.4408	1	0.0167523	12	0	15.2833	0.000182076
2	1	0	1	0	0	17.9835	0.429785	0.430083	0.433482	1	0.0174962	12	0	16.9835	0.000186433
2	1	0	1	0	0	19.6837	0.446788	0.447071	0.420257	1	0.0182193	12	0	18.6837	0.000187885
2	0	0	1	0	0	21.3303	0.436736	0.437015	-0.0999963	1	0.0183957	13	0	0.665	-4.36999e-05
2	0	0	1	0	0	23.0457	0.419584	0.419838	-0.181186	1	0.0181435	12	0	2.3804	-7.60688e-05
2	0	0	1	0	0	24.7459	0.402581	0.402857	-0.225437	1	0.0177977	12	0	4.0806	-9.0819e-05
2	0	0	1	0	0	26.4461	0.385579	0.385821	-0.259065	1	0.0173841	12	0	5.7808	-9.99526e-05
2	0	0	1	0	0	28.1463	0.368577	0.368807	-0.298953	1	0.0169095	12	0	7.481	-0.000110256
2	0	0	1	0	0	29.8465	0.351574	0.351827	-0.329432	1	0.0163765	12	0	9.1812	-0.000115903
2	1	0	1	0	1	31.4795	0.364776	0.36499	0.324024	2	0.0165442	12	0	1.1502	0.000118265
2	1	0	1	0	1	33.1797	0.381779	0.381991	0.337151	2	0.01712	12	0	2.8504	0.000128789
2	1	0	1	0	1	34.8799	0.398781	0.398988	0.330195	2	0.0176887	12	0	4.5506	0.000131744
2	1	0	1	0	1	36.5801	0.415783	0.416075	0.317159	2	0.0182367	12	0	6.2508	0.000131962
2	1	0	1	0	1	38.2803	0.432786	0.432995	0.307909	2	0.0187692	12	0	7.951	0.000133323
2	1	0	1	0	1	39.9782	0.449763	0.449996	0.314864	2	0.019296	12	0	9.6489	0.000141688
2	0	0	1	0	1	41.6423	0.433586	0.433851	-0.174118	2	0.0191835	12	0	1.2602	-7.55413e-05
2	0	0	1	0	1	43.3425	0.416583	0.416768	-0.214888	2	0.0188479	12	0	2.9604	-8.95584e-05
2	0	0	1	0	1	45.0427	0.399581	0.399787	-0.250247	2	0.018453	12	0	4.6606	-0.000100046
2	0	0	1	0	1	46.7429	0.382579	0.382842	-0.274833	2	0.0180066	12	0	6.3608	-0.000105218
2	0	0	1	0	1	48.4431	0.365576	0.365866	-0.308906	2	0.0175093	12	0	8.061	-0.000113018
2	0	0	1	0	0	50.0761	0.350774	0.351011	-0.229552	3	0.0169877	12	0	9.694	-8.05754e-05
2	1	0	1	0	0	51.7763	0.367777	0.367991	0.323429	3	0.0173118	12	0	1.4002	0.000119019
2	1	0	1	0	0	53.4765	0.384779	0.38498	0.318672	3	0.0178646	12	0	3.1004	0.000122682
2	1	0	1	0	0	55.1767	0.401781	0.401999	0.308117	3	0.0183987	12	0	4.8006	0.000123863
2	1	0	1	0	0	56.8769	0.418784	0.41905	0.293365	3	0.0189081	12	0	6.5008	0.000122935
2	1	0	1	0	0	58.5773	0.435786	0.436023	0.282854	3	0.0193989	12	0	8.2012	0.000123331
2	1	0	1	0	0	60.1789	0.448188	0.448417	0.0735091	3	0.0198319	12	0	9.8028	3.29627e-05
2	0	0	1	0	0	61.8791	0.431185	0.431405	-0.19256	3	0.0196027	12	0	1.5502	-8.30715e-05
2	0	0	1	0	0	63.5793	0.414183	0.414449	-0.228124	3	0.0192419	12	0	3.2504	-9.4546e-05
2	0	0	1	0	0	65.2795	0.397181	0.397497	-0.256538	3	0.0188312	12	0	4.9506	-0.000101973
2	0	0	1	0	0	66.9797	0.380178	0.380436	-0.28068	3	0.0183736	12	0	6.6508	-0.000106781
2	0	0	1	0	0	68.6801	0.363176	0.363355	-0.315178	3	0.0178677	12	0	8.3512	-0.000114522
2	0	0	1	0	1	70.3229	0.353274	0.353468	0.0163811	4	0.0173969	12	0	9.994	5.79019e-06
2	1	0	1	0	1	72.0231	0.370277	0.370424	0.315403	4	0.0178173	12	0	1.6502	0.000116833
2	1	0	1	0	1	73.7233	0.387279	0.38753	0.312721	4	0.0183561	12	0	3.3504	0.000121189
2	1	0	1	0	1	75.4235	0.404282	0.404487	0.294594	4	0.018871	12	0	5.0506	0.00011916
2	1	0	1	0	1	77.1239	0.421284	0.421517	0.279707	4	0.0193604	12	0	6.751	0.000117901
2	1	0	1	0	1	78.8241	0.438286	0.438452	0.274255	4	0.0198298	12	0	8.4512	0.000120248
2	0	0	1	0	1	80.4257	0.445687	0.445874	-0.0699428	4	0.0201706	12	0	0.1	-3.11856e-05
2	0	0	1	0	1	82.1259	0.428685	0.428893	-0.207708	4	0.0198804	12	0	1.8002	-8.90846e-05
2	0	0	1	0	1	83.8261	0.411683	0.411942	-0.23168	4	0.0195063	12	0	3.5004	-9.54388e-05
2	0	0	1	0	1	85.5263	0.39468	0.394931	-0.260626	4	0.0190863	12	0	5.2006	-0.000102929
2	0	0	1	0	1	87.2267	0.377678	0.37784	-0.286812	4	0.0186219	12	0	6.901	-0.000108369
2	0	0	1	0	1	88.9269	0.360676	0.36086	-0.31398	4	0.01811	12	0	8.6012	-0.000113303
2	1	0	1	0	0	90.5697	0.355775	0.355984	0.148096	5	0.0177417	12	0	0.2	5.27198e-05
2	1	0	1	0	0	92.2699	0.372777	0.373023	0.316476	5	0.0182142	12	0	1.9002	0.000118053
2	1	0	1	0	0	93.9701	0.38978	0.390032	0.300663	5	0.0187419	12	0	3.6004	0.000117268
2	1	0	1	0	0	95.6704	0.406782	0.407028	0.289089	5	0.0192428	12	0	5.3007	0.000117667
2	1	0	1	0	0	97.3707	0.423784	0.424039	0.269966	5	0.0197178	12	0	7.001	0.000114476
2	1	0	1	0	0	99.0709	0.440787	0.441038	0.266157	5	0.0201732	12	0	8.7012	0.000117385
2	0	0	1	0	0	100.672	0.443187	0.443427	-0.136987	5	0.0204069	12	0	0.35	-6.07438e-05
2	0	0	1	0	0	102.373	0.426185	0.426405	-0.212859	5	0.0200854	12	0	2.0502	-9.07641e-05
2	0	0	1	0	0	104.073	0.409182	0.409396	-0.238315	5	0.0197019	12	0	3.7504	-9.75653e-05
2	0	0	1	0	0	105.773	0.39218	0.392418	-0.262133	5	0.0192752	12	0	5.4508	-0.000102866
2	0	0	1	0	0	107.473	0.375178	0.375395	-0.292288	5	0.0188051	12	0	7.151	-0.000109723
2	0	0	1	0	0	109.174	0.358175	0.358344	-0.315894	5	0.0182879	12	0	8.8512	-0.000113199
2	1	0	1	0	1	110.816	0.358275	0.358496	0.22138	6	0.0180483	12	0	0.45	7.9364e-05
2	1	0	1	0	1	112.517	0.375278	0.375482	0.313987	6	0.0185479	12	0	2.1502	0.000117896
2	1	0	1	0	1	114.217	0.39228	0.392535	0.294266	6	0.0190663	12	0	3.8504	0.00011551
[...]
2	1	0	1	0	0	137.864	0.428785	0.429003	0.263279	7	0.0202827	12	0	7.501	0.000112948
2	1	0	1	0	0	139.564	0.445787	0.445998	0.24959	7	0.020718	12	0	9.2012	0.000111317
2	0	0	1	0	0	141.166	0.438186	0.438442	-0.188195	7	0.0207253	12	0	0.9	-8.25126e-05
2	0	0	1	0	0	142.866	0.421184	0.42142	-0.218452	7	0.0203739	12	0	2.6002	-9.206e-05
2	0	0	1	0	0	144.567	0.404182	0.404384	-0.247818	7	0.0199768	12	0	4.3006	-0.000100214
2	0	0	1	0	0	146.267	0.387179	0.387392	-0.26704	7	0.0195393	12	0	6.0008	-0.000103449
2	0	0	1	0	0	147.967	0.370177	0.370377	-0.298398	7	0.019059	12	0	7.701	-0.000110519
2	0	0	1	0	0	149.667	0.353175	0.353385	-0.322519	7	0.0185317	12	0	9.4012	-0.000113973
2	1	0	1	0	1	151.31	0.363276	0.363532	0.285931	8	0.0185864	12	0	1	0.000103945
2	1	0	1	0	1	153.01	0.380278	0.38048	0.303886	8	0.0191028	12	0	2.7004	0.000115622
2	1	0	1	0	1	154.711	0.397281	0.397546	0.285831	8	0.0196042	12	0	4.4006	0.000113631
2	1	0	1	0	1	156.411	0.414283	0.414538	0.269222	8	0.0200757	12	0	6.1008	0.000111603
2	1	0	1	0	1	158.111	0.431285	0.431487	0.255653	8	0.0205215	12	0	7.801	0.000110311
2	1	0	1	0	1	159.811	0.448288	0.448519	0.247885	8	0.020949	12	0	9.5012	0.000111181
2	0	0	1	0	1	161.413	0.435686	0.435986	-0.195096	8	0.0208417	12	0	1.15	-8.5059e-05
2	0	0	1	0	1	163.113	0.418684	0.41895	-0.224993	8	0.0204811	12	0	2.8504	-9.42608e-05
2	0	0	1	0	1	164.813	0.401681	0.401911	-0.248906	8	0.0200782	12	0	4.5506	-0.000100038
2	0	0	1	0	1	166.514	0.384679	0.384857	-0.271842	8	0.0196354	12	0	6.2508	-0.00010462
2	0	0	1	0	1	168.214	0.367677	0.367907	-0.300066	8	0.0191492	12	0	7.951	-0.000110397
2	0	0	1	0	1	169.914	0.350674	0.350806	-0.326934	8	0.0186164	12	0	9.6512	-0.000114691
2	1	0	1	0	0	171.557	0.365776	0.365983	0.294663	9	0.0188261	12	0	1.2502	0.000107841
2	1	0	1	0	0	173.257	0.382779	0.383026	0.301971	9	0.0193419	12	0	2.9504	0.000115663
2	1	0	1	0	0	174.957	0.399781	0.400065	0.278482	9	0.0198354	12	0	4.6506	0.000111411
2	1	0	1	0	0	176.658	0.416783	0.41693	0.267396	9	0.020299	12	0	6.3508	0.000111485
2	1	0	1	0	0	178.358	0.433786	0.434098	0.249357	9	0.0207376	12	0	8.051	0.000108245
2	1	0	0	0	0	179.982	0.449963	0.450249	0.245028	9	0.0211401	12	0	9.6751	0.000110323
2	0	0	1	0	0	181.66	0.433186	0.433347	-0.200271	9	0.0209376	12	0	1.4002	-8.67869e-05
2	0	0	1	0	0	183.36	0.416183	0.416343	-0.230136	9	0.0205698	12	0	3.1004	-9.58158e-05
2	0	0	1	0	0	185.06	0.399181	0.399446	-0.251169	9	0.0201616	12	0	4.8006	-0.000100328
2	0	0	1	0	0	186.76	0.382179	0.382438	-0.2755	9	0.0197135	12	0	6.5008	-0.000105362
2	0	0	1	0	0	188.461	0.365176	0.365368	-0.304349	9	0.0192216	12	0	8.201	-0.000111199
2	0	0	1	0	1	190.104	0.351274	0.351439	-0.158286	10	0.0187131	12	0	9.844	-5.56277e-05
2	1	0	1	0	1	191.804	0.368277	0.368521	0.299639	10	0.019048	12	0	1.5002	0.000110423
2	1	0	1	0	1	193.504	0.385279	0.385522	0.296249	10	0.0195602	12	0	3.2004	0.00011421
2	1	0	1	0	1	195.204	0.402281	0.402491	0.273387	10	0.0200435	12	0	4.9006	0.000110036
2	1	0	1	0	1	196.904	0.419284	0.419512	0.258168	10	0.0204968	12	0	6.6008	0.000108304
2	1	0	1	0	1	198.605	0.436286	0.436512	0.250595	10	0.020931	12	0	8.3012	0.000109388
2	1	0	1	0	1	200.206	0.447688	0.44794	0.0105863	10	0.0212919	12	0	9.9028	4.74205e-06
2	0	0	1	0	1	201.967	0.430085	0.430256	-0.215581	10	0.0210085	12	0	1.7102	-9.27549e-05
2	0	0	1	0	1	203.667	0.413083	0.41332	-0.228521	10	0.0206326	12	0	3.4104	-9.44523e-05
2	0	0	1	0	1	205.367	0.39608	0.396277	-0.254797	10	0.0202226	12	0	5.1106	-0.00010097
2	0	0	1	0	1	207.067	0.379078	0.379303	-0.276909	10	0.0197649	12	0	6.8108	-0.000105032
2	0	0	1	0	1	208.768	0.362076	0.362282	-0.306401	10	0.0192692	12	0	8.5112	-0.000111004
2	0	0	1	0	1	209.973	0.349999	0.35025	-0.336067	10	0.018887	12	0	9.7163	-0.000117707