Folder: SI_for_publications/ACS_Catal_2026/Figures_Na_K/main_figures/data/EC/20240126_2-102_Add_Na

Note: ACS_Catal_2026/ReadMe.md
## Codes to generate the figures in "Influence of Electrolyte Cations on the Oxygen Evolution Reaction of Nanochanneled Manganese Oxide"

All the code files were written by Koichi Yatsuzuka.
Includes the raw data files (binary and text).
The code uses Yatsuzuka's original library (included).

File: 20240125_2-102_001_preconditioning_elctrode1_01_CVA_C01.mpt
EC-Lab ASCII FILE
Nb header lines : 66

Cyclic Voltammetry Advanced

Run on channel : 1 (SN 66412)
User :
CE vs. WE compliance from -10 V to 10 V
Electrode connection : standard
Potential control : Ewe
Ewe ctrl range : min = -1.00 V, max = 1.00 V
Safety Limits :
	Do not start on E overload
Acquisition started on : 01/26/2024 15:44:18.212
Loaded Setting File :  C:\Users\NakamuraT\Documents\EC-Lab\Data\Yatsuzuka\20240125_2-101_K_new_condition\20240125_2-101_001_preconditioning_EIS_elctrode1.mps
Saved on :
	File : 20240125_2-102_001_preconditioning_elctrode1_01_CVA_C01.mpr
	Directory : C:\Users\NakamuraT\Documents\EC-Lab\Data\Yatsuzuka\20240126_2-102_Add_Na\
	Host : 192.109.209.100
Device : SP-150e (SN .003411)
Address : 192.109.209.236
EC-Lab for windows v11.50 (software)
Internet server v11.50 (firmware)
Command interpretor v11.50 (firmware)
Electrode material :
Initial state :
Electrolyte :
Comments :
Electrode surface area : 0.001 cm2
Characteristic mass : 0.001 g
Equivalent Weight : 0.000 g/eq.
Density : 0.000 g/cm3
Volume (V) : 0.001 cm3
Cycle Definition : Charge/Discharge alternance
Ei (V)              0.350
vs.                 Ref
ti (h:m:s)          0:00:10.0000
dti (s)             1.0000
dE/dt               10.000
dE/dt unit          mV/s
E1 (V)              0.450
vs.                 Ref
t1 (h:m:s)          0:00:0.0000
dt1 (s)             0.1000
Step percent        50
N                   10
E range min (V)     -1.000
E range max (V)     1.000
I Range             Auto
I Range min         Unset
I Range max         Unset
I Range init        Unset
Bandwidth           5
E2 (V)              0.350
vs.                 Ref
t2 (h:m:s)          0:00:0.0000
dt2 (s)             0.1000
nc cycles           9
nr                  1
Reverse Scan        0
Ef (V)              0.000
vs.                 Eoc
tf (h:m:s)          0:00:0.0000
dtf (s)             0.1000

mode	ox/red	error	control changes	Ns changes	counter inc.	time/s	control/V	Ewe/V	<I>/mA	cycle number	(Q-Qo)/C	I Range	Ns	step time/s	P/W
2	1	0	0	0	0	0.000000000000000E+000	0.350023	0.350415	13.6085	1	0.0000000E+000	10	0	0.000000000000000E+000	0.00476864
2	1	0	1	0	0	11.1827	0.3618	0.362107	0.462957	1	0.0147048	12	0	10.1827	0.00016764
2	1	0	1	0	0	12.8829	0.378803	0.379045	0.486388	1	0.0155213	12	0	11.8829	0.000184363
2	1	0	1	0	0	14.5833	0.395806	0.396106	0.479258	1	0.0163438	12	0	13.5833	0.000189837
2	1	0	1	0	0	16.2835	0.412809	0.413121	0.475909	1	0.0171556	12	0	15.2835	0.000196608
2	1	0	1	0	0	17.9839	0.429812	0.430126	0.45959	1	0.0179509	12	0	16.9839	0.000197681
2	1	0	1	0	0	19.6841	0.446815	0.447107	0.454886	1	0.0187277	12	0	18.6841	0.000203383
2	0	0	1	0	0	21.3731	0.436263	0.436536	-0.101815	1	0.0189134	13	0	0.7152	-4.44459e-05
2	0	0	1	0	0	23.0883	0.41911	0.419417	-0.181284	1	0.0186562	12	0	2.4304	-7.60335e-05
2	0	0	1	0	0	24.7887	0.402107	0.402341	-0.233714	1	0.0183006	12	0	4.1308	-9.40327e-05
2	0	0	1	0	0	26.4889	0.385104	0.385372	-0.266663	1	0.0178753	12	0	5.831	-0.000102764
2	0	0	1	0	0	28.1893	0.368101	0.368368	-0.304588	1	0.0173885	12	0	7.5314	-0.0001122
2	0	0	1	0	0	29.8895	0.351098	0.351364	-0.336628	1	0.0168439	12	0	9.2316	-0.000118279
2	1	0	1	0	1	31.5249	0.3653	0.36559	0.339732	2	0.0170782	12	0	1.2002	0.000124203
2	1	0	1	0	1	33.2251	0.382303	0.382585	0.351612	2	0.0176765	12	0	2.9004	0.000134522
2	1	0	1	0	1	34.9255	0.399306	0.399552	0.34462	2	0.0182679	12	0	4.6008	0.000137694
2	1	0	1	0	1	36.6257	0.416309	0.416628	0.332974	2	0.0188441	12	0	6.301	0.000138727
2	1	0	1	0	1	38.3261	0.433312	0.433626	0.333849	2	0.0194099	12	0	8.0014	0.000144765
2	1	0	1	0	1	39.9926	0.44999	0.4503	0.341154	2	0.019965	12	0	9.6679	0.000153622
2	0	0	1	0	1	41.6703	0.433212	0.433547	-0.180052	2	0.019832	12	0	1.3002	-7.8061e-05
2	0	0	1	0	1	43.3707	0.416209	0.416537	-0.227763	2	0.0194827	12	0	3.0006	-9.48716e-05
2	0	0	1	0	1	45.0709	0.399206	0.39952	-0.254255	2	0.0190713	12	0	4.7008	-0.00010158
2	0	0	1	0	1	46.7713	0.382203	0.382443	-0.289295	2	0.0186089	12	0	6.4012	-0.000110639
2	0	0	1	0	1	48.4715	0.3652	0.365483	-0.314312	2	0.0180962	12	0	8.1014	-0.000114876
2	0	0	1	0	0	50.1169	0.351298	0.351611	-0.154778	3	0.0175644	12	0	9.7468	-5.44217e-05
2	1	0	1	0	0	51.8171	0.368301	0.368623	0.334505	3	0.0179462	12	0	1.5002	0.000123306
2	1	0	1	0	0	53.5175	0.385304	0.385566	0.328608	3	0.0185147	12	0	3.2006	0.0001267
2	1	0	1	0	0	55.2177	0.402307	0.402596	0.321781	3	0.019068	12	0	4.9008	0.000129548
2	1	0	1	0	0	56.9181	0.41931	0.419567	0.30798	3	0.0196028	12	0	6.6012	0.000129218
2	1	0	1	0	0	58.6183	0.436313	0.436593	0.305671	3	0.0201239	12	0	8.3014	0.000133454
2	1	0	1	0	0	60.2623	0.447215	0.447528	0.000936081	3	0.0205748	12	0	9.9454	4.18922e-07
2	0	0	1	0	0	61.9625	0.430212	0.43047	-0.202276	3	0.0203105	12	0	1.6502	-8.70737e-05
2	0	0	1	0	0	63.6629	0.413209	0.413497	-0.240109	3	0.0199315	12	0	3.3506	-9.92843e-05
2	0	0	1	0	0	65.3631	0.396206	0.396449	-0.265499	3	0.0195011	12	0	5.0508	-0.000105257
2	0	0	1	0	0	67.0635	0.379203	0.379487	-0.29402	3	0.0190249	12	0	6.7512	-0.000111577
2	0	0	1	0	0	68.7637	0.3622	0.362482	-0.324315	3	0.0185011	12	0	8.4514	-0.000117558
2	1	0	1	0	1	70.4091	0.354298	0.35457	0.105825	4	0.0180632	12	0	0.1	3.75225e-05
2	1	0	1	0	1	72.1093	0.371301	0.371618	0.324355	4	0.0185362	12	0	1.8002	0.000120536
2	1	0	1	0	1	73.8097	0.388304	0.388635	0.322296	4	0.0190886	12	0	3.5006	0.000125255
2	1	0	1	0	1	75.5099	0.405307	0.405626	0.305092	4	0.0196213	12	0	5.2008	0.000123753
2	1	0	1	0	1	77.2103	0.42231	0.422617	0.297231	4	0.0201341	12	0	6.9012	0.000125615
2	1	0	1	0	1	78.9105	0.439313	0.439601	0.290882	4	0.0206322	12	0	8.6014	0.000127872
2	0	0	1	0	1	80.5545	0.444214	0.444512	-0.120855	4	0.0209498	12	0	0.25	-5.37216e-05
2	0	0	1	0	1	82.2549	0.427211	0.427507	-0.216522	4	0.0206291	12	0	1.9504	-9.25647e-05
2	0	0	1	0	1	83.9551	0.410208	0.410507	-0.248963	4	0.0202341	12	0	3.6506	-0.000102201
2	0	0	1	0	1	85.6555	0.393205	0.393461	-0.269829	4	0.0197923	12	0	5.351	-0.000106167
2	0	0	1	0	1	87.3557	0.376202	0.376489	-0.301808	4	0.0193068	12	0	7.0512	-0.000113627
2	0	0	1	0	1	89.0561	0.359199	0.359476	-0.324501	4	0.0187745	12	0	8.7516	-0.000116651
2	1	0	1	0	0	90.7013	0.357299	0.357588	0.218239	5	0.0184856	12	0	0.4	7.80396e-05
2	1	0	1	0	0	92.4017	0.374302	0.374569	0.324981	5	0.0189982	12	0	2.1004	0.000121728
2	1	0	1	0	0	94.1019	0.391305	0.391631	0.309187	5	0.0195383	12	0	3.8006	0.000121087
2	1	0	1	0	0	95.8023	0.408308	0.408533	0.30005	5	0.0200565	12	0	5.501	0.00012258
2	1	0	1	0	0	97.5025	0.425311	0.425594	0.286535	5	0.0205544	12	0	7.2012	0.000121948
2	1	0	1	0	0	99.2029	0.442314	0.442603	0.282146	5	0.0210376	12	0	8.9016	0.000124879
2	0	0	1	0	0	100.907	0.440614	0.440853	-0.174878	5	0.0212012	12	0	0.66	-7.70953e-05
2	0	0	1	0	0	102.607	0.423611	0.423908	-0.228554	5	0.0208495	12	0	2.3604	-9.68859e-05
2	0	0	1	0	0	104.307	0.406608	0.406862	-0.250545	5	0.0204409	12	0	4.0606	-0.000101937
2	0	0	1	0	0	106.008	0.389605	0.389903	-0.280811	5	0.0199893	12	0	5.761	-0.000109489
2	0	0	1	0	0	107.708	0.372601	0.372836	-0.302581	5	0.0194946	12	0	7.4613	-0.000112813
2	0	0	1	0	0	109.408	0.355599	0.355907	-0.333077	5	0.0189531	12	0	9.1616	-0.000118544
2	1	0	1	0	1	111.043	0.360799	0.361064	0.279676	6	0.0188728	12	0	0.75	0.000100981
2	1	0	1	0	1	112.744	0.377803	0.378083	0.319272	6	0.0194027	12	0	2.4504	0.000120711
2	1	0	1	0	1	114.444	0.394806	0.395073	0.301658	6	0.0199321	12	0	4.1507	0.000119177
[...]
2	1	0	1	0	0	139.837	0.448815	0.449087	0.27366	7	0.0216987	12	0	9.5516	0.000122897
2	0	0	1	0	0	141.481	0.434713	0.434972	-0.208753	7	0.0215545	12	0	1.2502	-9.08018e-05
2	0	0	1	0	0	143.181	0.41771	0.418	-0.234543	7	0.0211748	12	0	2.9504	-9.8039e-05
2	0	0	1	0	0	144.882	0.400707	0.400988	-0.263763	7	0.0207499	12	0	4.6508	-0.000105766
2	0	0	1	0	0	146.582	0.383703	0.383956	-0.284875	7	0.0202849	12	0	6.3511	-0.00010938
2	0	0	1	0	0	148.282	0.3667	0.367011	-0.311335	7	0.0197768	12	0	8.0514	-0.000114263
2	0	0	1	0	1	149.951	0.350023	0.350473	-0.337429	7	0.0192329	12	0	9.7195	-0.00011826
2	1	0	1	0	1	151.628	0.366801	0.367126	0.30889	8	0.0195191	12	0	1.3502	0.000113402
2	1	0	1	0	1	153.328	0.383803	0.384086	0.306387	8	0.0200492	12	0	3.0505	0.000117679
2	1	0	1	0	1	155.029	0.400807	0.4011	0.295415	8	0.0205604	12	0	4.7508	0.000118491
2	1	0	1	0	1	156.729	0.41781	0.418136	0.277818	8	0.0210485	12	0	6.4512	0.000116166
2	1	0	1	0	1	158.429	0.434813	0.435097	0.273219	8	0.0215163	12	0	8.1514	0.000118877
2	1	0	1	0	1	160.073	0.448715	0.449016	0.0868569	8	0.0219443	12	0	9.7954	3.90002e-05
2	0	0	1	0	1	161.773	0.431712	0.431971	-0.211391	8	0.0216808	12	0	1.5502	-9.13149e-05
2	0	0	1	0	1	163.474	0.414709	0.414993	-0.244064	8	0.0212915	12	0	3.2506	-0.000101285
2	0	0	1	0	1	165.174	0.397706	0.397969	-0.26361	8	0.0208599	12	0	4.9508	-0.000104909
2	0	0	1	0	1	166.874	0.380703	0.380974	-0.289898	8	0.0203881	12	0	6.6512	-0.000110443
2	0	0	1	0	1	168.575	0.3637	0.363997	-0.317337	8	0.0198734	12	0	8.3514	-0.00011551
2	0	0	1	0	0	170.22	0.352798	0.353072	0.00222207	9	0.0193853	12	0	9.9968	7.84551e-07
2	1	0	1	0	0	171.92	0.369801	0.370105	0.310596	9	0.0198032	12	0	1.6502	0.000114953
2	1	0	1	0	0	173.621	0.386804	0.387113	0.305139	9	0.0203287	12	0	3.3506	0.000118123
2	1	0	1	0	0	175.321	0.403807	0.404101	0.286426	9	0.0208321	12	0	5.0508	0.000115745
2	1	0	1	0	0	177.021	0.42081	0.421091	0.278609	9	0.0213123	12	0	6.7512	0.00011732
2	1	0	1	0	0	178.721	0.437813	0.4381	0.264293	9	0.0217731	12	0	8.4514	0.000115787
2	0	0	1	0	0	180.365	0.445715	0.445981	-0.09793	9	0.0221085	12	0	0.15	-4.36749e-05
2	0	0	1	0	0	182.066	0.428711	0.428952	-0.22352	9	0.0217851	12	0	1.8503	-9.58793e-05
2	0	0	1	0	0	183.766	0.411708	0.411987	-0.243524	9	0.0213877	12	0	3.5506	-0.000100329
2	0	0	1	0	0	185.466	0.394705	0.394996	-0.270697	9	0.0209492	12	0	5.251	-0.000106924
2	0	0	1	0	0	187.167	0.377702	0.378003	-0.293447	9	0.0204713	12	0	6.9512	-0.000110924
2	0	0	1	0	0	188.867	0.360699	0.360961	-0.319151	9	0.0199495	12	0	8.6516	-0.000115201
2	1	0	1	0	1	190.512	0.355799	0.356091	0.17208	10	0.0195883	12	0	0.25	6.12762e-05
2	1	0	1	0	1	192.213	0.372802	0.373058	0.311197	10	0.0200679	12	0	1.9504	0.000116095
2	1	0	1	0	1	193.913	0.389805	0.390074	0.297426	10	0.0205879	12	0	3.6506	0.000116018
2	1	0	1	0	1	195.613	0.406808	0.407073	0.28699	10	0.021084	12	0	5.351	0.000116826
2	1	0	1	0	1	197.313	0.423811	0.42407	0.269441	10	0.0215571	12	0	7.0512	0.000114262
2	1	0	1	0	1	199.014	0.440814	0.441088	0.265335	10	0.0220117	12	0	8.7516	0.000117036
2	0	0	1	0	1	200.658	0.442714	0.442972	-0.167549	10	0.0222227	12	0	0.45	-7.42195e-05
2	0	0	1	0	1	202.358	0.425711	0.426033	-0.221879	10	0.0218726	12	0	2.1504	-9.45279e-05
2	0	0	1	0	1	204.058	0.408708	0.408968	-0.253113	10	0.0214677	12	0	3.8506	-0.000103515
2	0	0	1	0	1	205.759	0.391705	0.392007	-0.271087	10	0.0210234	12	0	5.551	-0.000106268
2	0	0	1	0	1	207.459	0.374702	0.374999	-0.29779	10	0.020539	12	0	7.2512	-0.000111671
2	0	0	1	0	1	209.159	0.357699	0.357946	-0.325478	10	0.0200105	12	0	8.9516	-0.000116504
2	0	0	1	0	1	209.927	0.350023	0.350205	-0.335835	10	0.0197564	12	0	9.7191	-0.000117611

File: 20240125_2-102_001_preconditioning_elctrode1_02_PEIS_C01.mpt
EC-Lab ASCII FILE
Nb header lines : 63

Potentio Electrochemical Impedance Spectroscopy

Run on channel : 1 (SN 66412)
User :
CE vs. WE compliance from -10 V to 10 V
Electrode connection : standard
Potential control : Ewe
Ewe ctrl range : min = -1.00 V, max = 1.00 V
Safety Limits :
	Do not start on E overload
Acquisition started on : 01/26/2024 15:44:18.212
Loaded Setting File :  C:\Users\NakamuraT\Documents\EC-Lab\Data\Yatsuzuka\20240125_2-101_K_new_condition\20240125_2-101_001_preconditioning_EIS_elctrode1.mps
Saved on :
	File : 20240125_2-102_001_preconditioning_elctrode1_02_PEIS_C01.mpr
	Directory : C:\Users\NakamuraT\Documents\EC-Lab\Data\Yatsuzuka\20240126_2-102_Add_Na\
	Host : 192.109.209.100
Device : SP-150e (SN .003411)
Address : 192.109.209.236
EC-Lab for windows v11.50 (software)
Internet server v11.50 (firmware)
Command interpretor v11.50 (firmware)
Electrode material :
Initial state :
Electrolyte :
Comments :
Electrode surface area : 0.001 cm2
Characteristic mass : 0.001 g
Equivalent Weight : 0.000 g/eq.
Density : 0.000 g/cm3
Volume (V) : 0.001 cm3
Cycle Definition : Charge/Discharge alternance
Mode                Single sine
E (V)               0.4000
vs.                 Eoc
tE (h:m:s)          0:00:0.0000
record              0
dI                  0.000
unit dI             mA
dt (s)              0.000
fi                  500.000
unit fi             kHz
ff                  1.000
unit ff             Hz
Nd                  6
Points              per decade
spacing             Logarithmic
Va (mV)             10.0
pw                  0.10
Na                  2
corr                0
E range min (V)     -1.000
E range max (V)     1.000
I Range             Auto
Bandwidth           5
nc cycles           0
goto Ns'            0
nr cycles           0
inc. cycle          0

freq/Hz	Re(Z)/Ohm	-Im(Z)/Ohm	|Z|/Ohm	Phase(Z)/deg	time/s	<Ewe>/V	<I>/mA	Cs/uF	Cp/uF	cycle number	I Range	|Ewe|/V	|I|/A	Ns	(Q-Qo)/mA.h	Re(Y)/Ohm-1	Im(Y)/Ohm-1	|Y|/Ohm-1	Phase(Y)/deg	Re(C)/nF	Im(C)/nF	|C|/nF	Phase(C)/deg	Re(M)	Im(M)	|M|	Phase(M)/deg	Re(Permittivity)	Im(Permittivity)	|Permittivity|	Phase(Permittivity)/deg	Re(Resistivity)/Ohm.cm	Im(Resistivity)/Ohm.cm	|Resistivity|/Ohm.cm	Phase(Resistivity)/deg	Re(Conductivity)/mS/cm	Im(Conductivity)/mS/cm	|Conductivity|/mS/cm	Phase(Conductivity)/deg	Tan(Delta)	Loss Angle(Delta)/deg	dq/mA.h
500019	21.1522	-4.04827	21.5361	10.8347	211.007	0.373512	0.0996176	-0.0786257	-0.00277824	1	10	0.00948868	0.000440594	0	7.51769e-05	0.0456059	-0.00872841	0.0464336	-10.8347	-2.77824	14.5163	14.7797	-100.835	0.0000000E+000	0.0000000E+000	0.0000000E+000	100.835	0.0000000E+000	0.0000000E+000	0.0000000E+000	-100.835	0.0000000E+000	0.0000000E+000	0.0000000E+000	10.8347	0.0000000E+000	0.0000000E+000	0.0000000E+000	-10.8347	5.22499	79.1653	7.51769e-05
231063	12.0132	-1.8463	12.1543	8.73734	211.852	0.373389	-0.00298724	-0.373069	-0.00860862	1	10	0.0109238	0.000898762	0	7.95388e-05	0.0813207	-0.0124981	0.0822755	-8.73734	-8.60862	56.0134	56.6711	-98.7373	0.0000000E+000	0.0000000E+000	0.0000000E+000	98.7373	0.0000000E+000	0.0000000E+000	0.0000000E+000	-98.7373	0.0000000E+000	0.0000000E+000	0.0000000E+000	8.73734	0.0000000E+000	0.0000000E+000	0.0000000E+000	-8.73734	6.50667	81.2627	-6.80849e-07
106786	11.0781	-0.560863	11.0923	2.89829	212.832	0.373401	-0.0095534	-2.65734	-0.00679386	1	10	0.0107642	0.000970422	0	7.71346e-05	0.0900371	-0.0045584	0.0901525	-2.89829	-6.79386	134.192	134.364	-92.8983	0.0000000E+000	0.0000000E+000	0.0000000E+000	92.8983	0.0000000E+000	0.0000000E+000	0.0000000E+000	-92.8983	0.0000000E+000	0.0000000E+000	0.0000000E+000	2.89829	0.0000000E+000	0.0000000E+000	0.0000000E+000	-2.89829	19.7519	87.1017	-1.99708e-06
49352.4	10.9649	-0.216387	10.9671	1.13056	213.676	0.37341	-0.0112234	-14.9032	-0.00580181	1	10	0.0104795	0.000955542	0	7.33747e-05	0.0911644	-0.00179908	0.0911821	-1.13056	-5.8018	293.993	294.051	-91.1306	0.0000000E+000	0.0000000E+000	0.0000000E+000	91.1306	0.0000000E+000	0.0000000E+000	0.0000000E+000	-91.1306	0.0000000E+000	0.0000000E+000	0.0000000E+000	1.13056	0.0000000E+000	0.0000000E+000	0.0000000E+000	-1.13056	50.6727	88.8694	-1.89946e-06
22806.6	10.9405	-0.0904896	10.9408	0.473889	214.522	0.373406	-0.0137853	-77.119	-0.00527545	1	10	0.0103284	0.000944021	0	6.86044e-05	0.0913977	-0.00075596	0.0914008	-0.473889	-5.27548	637.816	637.838	-90.4739	0.0000000E+000	0.0000000E+000	0.0000000E+000	90.4739	0.0000000E+000	0.0000000E+000	0.0000000E+000	-90.4739	0.0000000E+000	0.0000000E+000	0.0000000E+000	0.473889	0.0000000E+000	0.0000000E+000	0.0000000E+000	-0.473889	120.903	89.5261	-2.07738e-06
10540.4	10.9354	-0.0469412	10.9355	0.245946	215.366	0.373415	-0.0115947	-321.669	-0.00592707	1	10	0.0101061	0.000924155	0	6.36437e-05	0.0914444	-0.000392533	0.0914452	-0.245946	-5.92714	1380.77	1380.78	-90.2459	0.0000000E+000	0.0000000E+000	0.0000000E+000	90.2459	0.0000000E+000	0.0000000E+000	0.0000000E+000	-90.2459	0.0000000E+000	0.0000000E+000	0.0000000E+000	0.245946	0.0000000E+000	0.0000000E+000	0.0000000E+000	-0.245946	232.96	89.7541	-1.95219e-06
4871.56	10.9327	-0.020171	10.9327	0.105712	216.411	0.373432	-0.0112327	-1619.66	-0.00551347	1	10	0.0101631	0.000929605	0	6.17473e-05	0.0914685	-0.000168761	0.0914687	-0.105712	-5.51353	2988.3	2988.3	-90.1057	0.0000000E+000	0.0000000E+000	0.0000000E+000	90.1057	0.0000000E+000	0.0000000E+000	0.0000000E+000	-90.1057	0.0000000E+000	0.0000000E+000	0.0000000E+000	0.105712	0.0000000E+000	0.0000000E+000	0.0000000E+000	-0.105712	542	89.8943	-3.46763e-07
2250.72	10.9309	-0.00286842	10.9309	0.0150352	217.342	0.373431	-0.0114193	-24652.2	-0.00169757	1	10	0.0103727	0.000948933	0	5.91598e-05	0.0914835	-2.40065e-05	0.0914835	-0.0150352	-1.69784	6469.06	6469.06	-90.015	0.0000000E+000	0.0000000E+000	0.0000000E+000	90.015	0.0000000E+000	0.0000000E+000	0.0000000E+000	-90.015	0.0000000E+000	0.0000000E+000	0.0000000E+000	0.0150352	0.0000000E+000	0.0000000E+000	0.0000000E+000	-0.0150352	3810.78	89.985	-1.99401e-06
1040.33	10.9287	0.00130247	10.9287	-0.00682848	218.273	0.373434	-0.0107084	117457	0.00166833	1	10	0.010422	0.000953641	0	5.59255e-05	0.0915024	1.09052e-05	0.0915024	0.00682848	1.66829	13998.5	13998.5	-89.9932	0.0000000E+000	0.0000000E+000	0.0000000E+000	89.9932	0.0000000E+000	0.0000000E+000	0.0000000E+000	-89.9932	0.0000000E+000	0.0000000E+000	0.0000000E+000	-0.00682848	0.0000000E+000	0.0000000E+000	0.0000000E+000	0.00682848	8390.71	89.9932	-1.25548e-06
480.769	10.9367	0.015256	10.9368	-0.0799235	219.203	0.373435	-0.0113391	21699.2	0.0422227	1	10	0.0104358	0.000954194	0	5.25133e-05	0.0914347	0.000127545	0.0914348	0.0799235	42.2238	30268.7	30268.8	-89.9201	0.0000000E+000	0.0000000E+000	0.0000000E+000	89.9201	0.0000000E+000	0.0000000E+000	0.0000000E+000	-89.9201	0.0000000E+000	0.0000000E+000	0.0000000E+000	-0.0799235	0.0000000E+000	0.0000000E+000	0.0000000E+000	0.0799235	716.883	89.9201	-1.62929e-06
222.061	10.9252	0.0374099	10.9252	-0.196191	220.128	0.373427	-0.0113018	19158.5	0.224633	1	10	0.0104339	0.000955027	0	4.99704e-05	0.0915307	0.000313419	0.0915312	0.196191	224.631	65601.7	65602.1	-89.8038	0.0000000E+000	0.0000000E+000	0.0000000E+000	89.8038	0.0000000E+000	0.0000000E+000	0.0000000E+000	-89.8038	0.0000000E+000	0.0000000E+000	0.0000000E+000	-0.196191	0.0000000E+000	0.0000000E+000	0.0000000E+000	0.196191	292.039	89.8038	-5.10061e-07
102.667	10.9351	0.0696783	10.9353	-0.365083	221.065	0.373433	-0.0113577	22248	0.903283	1	10	0.0104432	0.000954996	0	4.61026e-05	0.0914451	0.000582688	0.091447	0.365083	903.278	141758	141761	-89.6349	0.0000000E+000	0.0000000E+000	0.0000000E+000	89.6349	0.0000000E+000	0.0000000E+000	0.0000000E+000	-89.6349	0.0000000E+000	0.0000000E+000	0.0000000E+000	-0.365083	0.0000000E+000	0.0000000E+000	0.0000000E+000	0.365083	156.937	89.6349	-2.30241e-06
47.4443	10.9445	0.135393	10.9454	-0.70876	221.976	0.37342	-0.0118466	24776.5	3.79115	1	10	0.0104451	0.00095429	0	4.13956e-05	0.0913559	0.00113015	0.0913628	0.70876	3791.17	306459	306482	-89.2912	0.0000000E+000	0.0000000E+000	0.0000000E+000	89.2912	0.0000000E+000	0.0000000E+000	0.0000000E+000	-89.2912	0.0000000E+000	0.0000000E+000	0.0000000E+000	-0.70876	0.0000000E+000	0.0000000E+000	0.0000000E+000	0.70876	80.8353	89.2912	-2.63512e-06
21.9144	10.9542	0.284364	10.9579	-1.48703	222.844	0.373403	-0.0109491	25539.7	17.1993	1	10	0.0104471	0.00095339	0	3.6134e-05	0.0912279	0.00236822	0.0912587	1.48703	17199.4	662548	662772	-88.513	0.0000000E+000	0.0000000E+000	0.0000000E+000	88.513	0.0000000E+000	0.0000000E+000	0.0000000E+000	-88.513	0.0000000E+000	0.0000000E+000	0.0000000E+000	-1.48703	0.0000000E+000	0.0000000E+000	0.0000000E+000	1.48703	38.5217	88.513	-4.18238e-06
10.1329	10.9576	0.593674	10.9737	-3.1012	223.771	0.373421	-0.0164815	26456.8	77.433	1	10	0.0104536	0.000952609	0	3.69125e-05	0.0909935	0.00492994	0.0911269	3.1012	77432.9	1.42921e+06	1.4313e+06	-86.8988	0.0000000E+000	0.0000000E+000	0.0000000E+000	86.8988	0.0000000E+000	0.0000000E+000	0.0000000E+000	-86.8988	0.0000000E+000	0.0000000E+000	0.0000000E+000	-3.1012	0.0000000E+000	0.0000000E+000	0.0000000E+000	3.1012	18.4573	86.8988	2.82711e-06
4.68375	10.9883	1.30238	11.0652	-6.7594	224.821	0.37342	0.00860526	26090.9	361.447	1	11	0.0104618	0.000945466	0	2.48916e-05	0.0897452	0.010637	0.0903734	6.7594	361447	3.04956e+06	3.07091e+06	-83.2406	0.0000000E+000	0.0000000E+000	0.0000000E+000	83.2406	0.0000000E+000	0.0000000E+000	0.0000000E+000	-83.2406	0.0000000E+000	0.0000000E+000	0.0000000E+000	-6.7594	0.0000000E+000	0.0000000E+000	0.0000000E+000	6.7594	8.4371	83.2406	-1.16496e-05
2.16533	11.0728	2.73533	11.4057	-13.876	226.534	0.373436	-4.65039e-05	26871.2	1545.48	1	11	0.0104606	0.000917139	0	4.32861e-05	0.0851169	0.0210265	0.0876755	13.876	1.54548e+06	6.25622e+06	6.44429e+06	-76.124	0.0000000E+000	0.0000000E+000	0.0000000E+000	76.124	0.0000000E+000	0.0000000E+000	0.0000000E+000	-76.124	0.0000000E+000	0.0000000E+000	0.0000000E+000	-13.876	0.0000000E+000	0.0000000E+000	0.0000000E+000	13.876	4.04809	76.124	1.79178e-05
1.00006	11.3286	5.75758	12.7077	-26.9412	230.143	0.373438	0.00329223	27640.9	5674.08	1	11	0.010462	0.000823275	0	4.35655e-05	0.0701519	0.0356536	0.0786922	26.9412	5.67408e+06	1.11643e+07	1.25235e+07	-63.0588	0.0000000E+000	0.0000000E+000	0.0000000E+000	63.0588	0.0000000E+000	0.0000000E+000	0.0000000E+000	-63.0588	0.0000000E+000	0.0000000E+000	0.0000000E+000	-26.9412	0.0000000E+000	0.0000000E+000	0.0000000E+000	26.9412	1.9676	63.0588	-1.3123e-05