Folder: SI_for_publications/ACS_Catal_2026/Figures_Na_K/main_figures/data/EC/20240126_2-102_Add_Na (part 12)

File: 20240201_2-102_017_add_Cs_5mL_elctrode5_C01.mpt
EC-Lab ASCII FILE
Nb header lines : 66

Cyclic Voltammetry Advanced

Run on channel : 1 (SN 66412)
User :
CE vs. WE compliance from -10 V to 10 V
Electrode connection : standard
Potential control : Ewe
Ewe ctrl range : min = -1.00 V, max = 1.00 V
Safety Limits :
	Do not start on E overload
Acquisition started on : 02/01/2024 15:18:58.671
Loaded Setting File :  C:\Users\NakamuraT\Documents\EC-Lab\Data\Yatsuzuka\20240126_2-102_Add_Na\20240201_2-102_006_K_elctrode6.mps
Saved on :
	File : 20240201_2-102_017_add_Cs_5mL_elctrode5_C01.mpr
	Directory : C:\Users\NakamuraT\Documents\EC-Lab\Data\Yatsuzuka\20240126_2-102_Add_Na\
	Host : 192.109.209.100
Device : SP-150e (SN .003411)
Address : 192.109.209.236
EC-Lab for windows v11.50 (software)
Internet server v11.50 (firmware)
Command interpretor v11.50 (firmware)
Electrode material :
Initial state :
Electrolyte :
Comments :
Electrode surface area : 0.001 cm2
Characteristic mass : 0.001 g
Equivalent Weight : 0.000 g/eq.
Density : 0.000 g/cm3
Volume (V) : 0.001 cm3
Cycle Definition : Charge/Discharge alternance
Ei (V)              0.450
vs.                 Ref
ti (h:m:s)          0:00:10.0000
dti (s)             0.0000
dE/dt               5.000
dE/dt unit          mV/s
E1 (V)              0.700
vs.                 Ref
t1 (h:m:s)          0:00:0.0000
dt1 (s)             0.1000
Step percent        50
N                   10
E range min (V)     -1.000
E range max (V)     1.000
I Range             10 mA
I Range min         Unset
I Range max         Unset
I Range init        Unset
Bandwidth           5
E2 (V)              0.450
vs.                 Ref
t2 (h:m:s)          0:00:0.0000
dt2 (s)             0.1000
nc cycles           14
nr                  1
Reverse Scan        0
Ef (V)              0.000
vs.                 Eoc
tf (h:m:s)          0:00:0.0000
dtf (s)             0.1000

mode	ox/red	error	control changes	Ns changes	counter inc.	time/s	control/V	Ewe/V	<I>/mA	cycle number	(Q-Qo)/C	I Range	Ns	step time/s	P/W
2	0	0	1	0	0	0.000000000000000E+000	0.450019	0.450308	-0.000963372	1	0.0000000E+000	11	0	0.000000000000000E+000	-4.33814e-07
2	1	0	1	0	0	12.257	0.511305	0.511635	0.165615	1	0.00112928	11	0	12.202	8.47344e-05
2	1	0	0	0	0	24.5592	0.572816	0.573119	1.20988	1	0.00778039	11	0	24.5042	0.000693402
2	1	0	1	0	0	36.8614	0.634327	0.634634	4.05512	1	0.0387955	11	0	36.8064	0.00257352
2	1	0	0	0	0	49.1636	0.695838	0.69615	7.71557	1	0.110856	11	0	49.1086	0.00537119
2	1	0	0	0	0	61.258	0.643678	0.64398	4.27574	1	0.185491	11	0	61.203	0.00275349
2	1	0	1	0	0	73.5602	0.582168	0.582496	1.29954	1	0.218286	11	0	73.5052	0.000756979
2	1	0	0	0	0	85.8624	0.520657	0.521002	0.100386	1	0.225	11	0	85.8074	5.23013e-05
2	0	0	1	0	0	98.1646	0.459146	0.459437	-0.0514759	1	0.224956	11	0	7.6014	-2.365e-05
2	1	0	0	0	1	110.346	0.501803	0.502155	0.114147	2	0.225624	11	0	10.2018	5.73194e-05
2	1	0	1	0	1	122.648	0.563314	0.563587	0.84641	2	0.230066	11	0	22.504	0.000477026
2	1	0	0	0	1	134.95	0.624825	0.625135	3.4059	2	0.254543	11	0	34.8062	0.00212915
2	1	0	1	0	1	147.252	0.686336	0.686633	6.98039	2	0.317954	11	0	47.1084	0.00479297
2	1	0	0	0	1	159.347	0.65318	0.653492	4.72379	2	0.39638	11	0	59.2026	0.00308696
2	1	0	1	0	1	171.649	0.591669	0.592022	1.59577	2	0.433986	11	0	71.5048	0.000944733
2	1	0	0	0	1	183.951	0.530158	0.530448	0.161559	2	0.442788	11	0	83.807	8.56987e-05
2	0	0	1	0	1	196.253	0.468647	0.46894	-0.0438268	2	0.443028	11	0	6.001	-2.05521e-05
2	1	0	0	0	0	208.434	0.492302	0.492589	0.0888295	3	0.443397	11	0	8.3014	4.37564e-05
2	1	0	1	0	0	220.737	0.553813	0.554144	0.602762	3	0.446523	11	0	20.6036	0.000334017
2	1	0	0	0	0	233.039	0.615323	0.615676	2.86801	3	0.465919	11	0	32.9058	0.00176577
2	1	0	1	0	0	245.341	0.676834	0.677135	6.37038	3	0.521995	11	0	45.208	0.00431361
2	1	0	1	0	0	257.435	0.662682	0.66298	5.30567	3	0.603397	11	0	57.3024	0.00351755
2	1	0	0	0	0	269.738	0.601171	0.601479	2.01611	3	0.647255	11	0	69.6046	0.00121264
2	1	0	1	0	0	282.04	0.53966	0.540008	0.282352	3	0.659373	11	0	81.9068	0.000152472
2	0	0	1	0	0	294.342	0.478149	0.47843	-0.0355171	3	0.660183	11	0	3.7007	-1.69925e-05
2	1	0	0	0	1	306.523	0.4828	0.483152	0.0767255	4	0.660331	11	0	6.401	3.70701e-05
2	1	0	1	0	1	318.825	0.544311	0.544608	0.447332	4	0.662707	11	0	18.7032	0.000243621
2	1	0	0	0	1	331.127	0.605822	0.606114	2.44353	4	0.678391	11	0	31.0054	0.00148106
2	1	0	1	0	1	343.43	0.667333	0.667639	5.89307	4	0.728753	11	0	43.3076	0.00393444
2	1	0	1	0	1	355.524	0.672184	0.672451	6.11098	4	0.813113	11	0	55.402	0.00410933
2	1	0	0	0	1	367.826	0.610673	0.61097	2.57872	4	0.865591	11	0	67.7042	0.00157552
2	1	0	1	0	1	380.128	0.549162	0.549481	0.454046	4	0.882265	11	0	80.0064	0.000249489
2	0	0	0	0	1	392.431	0.487651	0.487964	-0.0187805	4	0.883915	11	0	1.6004	-9.16422e-06
2	1	0	1	0	0	404.612	0.473298	0.473608	0.0671764	5	0.883881	11	0	4.5008	3.18153e-05
2	1	0	0	0	0	416.914	0.534809	0.535155	0.322922	5	0.885683	11	0	16.803	0.000172814
2	1	0	1	0	0	429.216	0.59632	0.596629	1.99017	5	0.897787	11	0	29.1052	0.00118739
2	1	0	1	0	0	441.518	0.657831	0.658137	5.26339	5	0.941351	11	0	41.4073	0.00346403
2	1	0	1	0	0	453.613	0.681685	0.68203	6.66423	5	1.02346	11	0	53.5016	0.0045452
2	1	0	0	0	0	465.915	0.620174	0.620481	3.01709	5	1.08215	11	0	65.8038	0.00187204
2	1	0	1	0	0	478.217	0.558663	0.558985	0.632064	5	1.10274	11	0	78.106	0.000353314
2	1	0	0	0	0	490.519	0.497152	0.497419	-0.000404608	5	1.10535	11	0	90.4082	-2.0126e-07
2	1	0	1	0	1	502.7	0.463797	0.464102	0.0588817	6	1.10517	11	0	2.6004	2.73271e-05
2	1	0	0	0	1	515.003	0.525307	0.525641	0.226575	6	1.10655	11	0	14.9026	0.000119097
2	1	0	1	0	1	527.305	0.586818	0.587146	1.56681	6	1.11555	11	0	27.2048	0.000919946
2	1	0	0	0	1	539.607	0.648329	0.648637	4.64574	6	1.15249	11	0	39.507	0.0030134
2	1	0	0	0	1	551.701	0.691187	0.691478	7.24696	6	1.2301	11	0	51.6014	0.00501111
2	1	0	1	0	1	564.003	0.629676	0.630036	3.49267	6	1.29533	11	0	63.9035	0.00220051
2	1	0	1	0	1	576.306	0.568165	0.568495	0.852969	6	1.32034	11	0	76.2057	0.000484909
2	1	0	0	0	1	588.608	0.506654	0.507008	0.0268864	6	1.32422	11	0	88.5078	1.36316e-05
2	1	0	1	0	0	600.789	0.454295	0.454563	0.0497817	7	1.32395	11	0	0.7	2.26289e-05
2	1	0	0	0	0	613.091	0.515806	0.516128	0.162679	7	1.32504	11	0	13.0022	8.39632e-05
2	1	0	1	0	0	625.393	0.577317	0.577639	1.19773	7	1.33161	11	0	25.3044	0.000691853
2	1	0	0	0	0	637.696	0.638828	0.639097	4.05068	7	1.36246	11	0	37.6066	0.00258878
2	1	0	0	0	0	649.925	0.700014	0.700345	7.82277	7	1.4345	11	0	49.836	0.00547864
2	1	0	1	0	0	662.092	0.639178	0.63945	3.9512	7	1.50512	11	0	62.0032	0.00252659
2	1	0	0	0	0	674.394	0.577667	0.577959	1.11715	7	1.53483	11	0	74.3054	0.000645664
2	1	0	1	0	0	686.697	0.516156	0.516401	0.0666543	7	1.54034	11	0	86.6076	3.44203e-05
2	0	0	0	0	0	698.999	0.454645	0.454936	-0.0537312	7	1.54017	11	0	8.6016	-2.44443e-05
2	1	0	1	0	1	711.18	0.506304	0.50662	0.121391	8	1.54097	11	0	11.1019	6.1499e-05
2	1	0	1	0	1	723.482	0.567815	0.56813	0.892066	8	1.5457	11	0	23.4041	0.000506809
2	1	0	1	0	1	735.784	0.629326	0.629704	3.4881	8	1.57094	11	0	35.7063	0.00219647
2	1	0	1	0	1	748.086	0.690837	0.691136	7.16584	8	1.63581	11	0	48.0084	0.00495257
2	1	0	1	0	1	760.181	0.648679	0.64896	4.47065	8	1.71155	11	0	60.1028	0.00290127
2	1	0	0	0	1	772.483	0.587168	0.587469	1.42427	8	1.74647	11	0	72.405	0.000836713
2	1	0	1	0	1	784.785	0.525657	0.525961	0.122672	8	1.75405	11	0	84.7072	6.45206e-05
[...]
2	1	0	0	0	1	980.963	0.544661	0.544915	0.308547	10	2.1732	11	0	80.9066	0.000168132
2	0	0	1	0	1	993.265	0.48315	0.483417	-0.0309157	10	2.17416	11	0	3.1006	-1.49452e-05
2	1	0	1	0	0	1005.45	0.477799	0.478132	0.0683627	11	2.17418	11	0	5.3009	3.26864e-05
2	1	0	0	0	0	1017.75	0.53931	0.539618	0.326468	11	2.17599	11	0	17.603	0.000176168
2	1	0	1	0	0	1030.05	0.600821	0.601129	1.98548	11	2.18811	11	0	29.9052	0.00119353
2	1	0	0	0	0	1042.35	0.662332	0.662627	5.22954	11	2.23146	11	0	42.2074	0.00346523
2	1	0	0	0	0	1054.45	0.677184	0.677471	6.02538	11	2.31052	11	0	54.3018	0.00408202
2	1	0	1	0	0	1066.75	0.615673	0.616004	2.54947	11	2.36231	11	0	66.604	0.00157048
2	1	0	0	0	0	1079.05	0.554163	0.554485	0.449879	11	2.37877	11	0	78.9062	0.000249451
2	0	0	1	0	0	1091.35	0.492652	0.492977	-0.0135403	11	2.38043	11	0	1.3002	-6.67507e-06
2	1	0	0	0	1	1103.53	0.468297	0.468611	0.0621728	12	2.38028	11	0	3.4006	2.91349e-05
2	1	0	1	0	1	1115.84	0.529808	0.530142	0.22918	12	2.38167	11	0	15.7028	0.000121498
2	1	0	0	0	1	1128.14	0.591319	0.591635	1.56361	12	2.39072	11	0	28.005	0.000925084
2	1	0	1	0	1	1140.44	0.65283	0.653111	4.61892	12	2.42757	11	0	40.3072	0.00301667
2	1	0	0	0	1	1152.54	0.686686	0.686979	6.60991	12	2.50341	11	0	52.4014	0.00454087
2	1	0	1	0	1	1164.84	0.625175	0.625409	2.98082	12	2.56146	11	0	64.7036	0.00186423
2	1	0	0	0	1	1177.14	0.563664	0.563966	0.623807	12	2.58179	11	0	77.0058	0.000351806
2	0	0	1	0	1	1189.44	0.502153	0.502454	0.00351669	12	2.58441	11	0	89.308	1.76698e-06
2	1	0	0	0	0	1201.62	0.458796	0.459133	0.0562364	13	2.58413	11	0	1.5002	2.582e-05
2	1	0	1	0	0	1213.93	0.520307	0.520679	0.169248	13	2.58525	11	0	13.8024	8.8124e-05
2	1	0	0	0	0	1226.23	0.581818	0.582125	1.20442	13	2.59189	11	0	26.1046	0.000701121
2	1	0	1	0	0	1238.53	0.643328	0.643658	4.0323	13	2.62268	11	0	38.4068	0.00259542
2	1	0	1	0	0	1250.62	0.696188	0.696474	7.18315	13	2.69286	11	0	50.5012	0.00500288
2	1	0	0	0	0	1262.93	0.634677	0.635012	3.42604	13	2.75721	11	0	62.8034	0.00217558
2	1	0	1	0	0	1275.23	0.573166	0.573502	0.85015	13	2.7819	11	0	75.1056	0.000487562
2	1	0	1	0	0	1287.53	0.511655	0.511957	0.0329893	13	2.78579	11	0	87.4077	1.68891e-05
2	0	0	0	0	0	1299.82	0.450219	0.450561	-0.0534971	13	2.78547	11	0	9.8866	-2.41037e-05
2	1	0	1	0	1	1312.01	0.510805	0.511119	0.126698	14	2.78637	11	0	12.002	6.47579e-05
2	1	0	0	0	1	1324.32	0.572316	0.572616	0.903569	14	2.79118	11	0	24.3042	0.000517398
2	1	0	1	0	1	1336.62	0.633827	0.634174	3.48168	14	2.81647	11	0	36.6064	0.00220799
2	1	0	0	0	1	1348.92	0.695338	0.695672	7.1463	14	2.88121	11	0	48.9086	0.00497149
2	1	0	0	0	1	1361.01	0.644179	0.644445	3.92358	14	2.95067	11	0	61.003	0.00252853
2	1	0	1	0	1	1373.32	0.582668	0.583015	1.11716	14	2.98017	11	0	73.3052	0.00065132
2	1	0	0	0	1	1385.62	0.521157	0.521445	0.0741678	14	2.98573	11	0	85.6074	3.86744e-05
2	0	0	1	0	1	1397.92	0.459646	0.459952	-0.0511665	14	2.98559	11	0	8.3016	-2.35341e-05
2	1	0	0	0	0	1410.1	0.501303	0.501645	0.0971063	15	2.98618	11	0	10.0018	4.87128e-05
2	1	0	1	0	0	1422.4	0.562814	0.563149	0.657691	15	2.98966	11	0	22.304	0.000370378
2	1	0	0	0	0	1434.71	0.624325	0.624636	2.95026	15	3.01001	11	0	34.6062	0.00184284
2	1	0	1	0	0	1447.01	0.685836	0.686043	6.48754	15	3.06733	11	0	46.9083	0.00445073
2	1	0	0	0	0	1459.1	0.65368	0.653953	4.40812	15	3.14115	11	0	59.0026	0.0028827
2	1	0	1	0	0	1471.41	0.592169	0.592488	1.41428	15	3.17566	11	0	71.3048	0.000837942
2	1	0	0	0	0	1483.71	0.530658	0.530939	0.131752	15	3.18323	11	0	83.607	6.99524e-05
2	0	0	1	0	0	1496.01	0.469147	0.469424	-0.0415768	15	3.18335	11	0	6.4012	-1.95171e-05
2	0	0	1	0	0	1499.83	0.450019	0.450327	-0.0663977	15	3.18316	11	0	10.2258	-2.99007e-05

File: 20240201_2-102_018_add_Cs_5mL_elctrode6_C02.mpt
EC-Lab ASCII FILE
Nb header lines : 66

Cyclic Voltammetry Advanced

Run on channel : 2 (SN 66414)
User :
CE vs. WE compliance from -10 V to 10 V
Electrode connection : standard
Potential control : Ewe
Ewe ctrl range : min = -1.00 V, max = 1.00 V
Safety Limits :
	Do not start on E overload
Acquisition started on : 02/01/2024 15:19:23.934
Loaded Setting File :  C:\Users\NakamuraT\Documents\EC-Lab\Data\Yatsuzuka\20240126_2-102_Add_Na\20240125_2-102_010_K_elctrode4.mps
Saved on :
	File : 20240201_2-102_018_add_Cs_5mL_elctrode6_C02.mpr
	Directory : C:\Users\NakamuraT\Documents\EC-Lab\Data\Yatsuzuka\20240126_2-102_Add_Na\
	Host : 192.109.209.100
Device : SP-150e (SN .003411)
Address : 192.109.209.236
EC-Lab for windows v11.50 (software)
Internet server v11.50 (firmware)
Command interpretor v11.50 (firmware)
Electrode material :
Initial state :
Electrolyte :
Comments :
Electrode surface area : 0.001 cm2
Characteristic mass : 0.001 g
Equivalent Weight : 0.000 g/eq.
Density : 0.000 g/cm3
Volume (V) : 0.001 cm3
Cycle Definition : Charge/Discharge alternance
Ei (V)              0.450
vs.                 Ref
ti (h:m:s)          0:00:10.0000
dti (s)             0.0000
dE/dt               5.000
dE/dt unit          mV/s
E1 (V)              0.700
vs.                 Ref
t1 (h:m:s)          0:00:0.0000
dt1 (s)             0.1000
Step percent        50
N                   10
E range min (V)     -1.000
E range max (V)     1.000
I Range             10 mA
I Range min         Unset
I Range max         Unset
I Range init        Unset
Bandwidth           5
E2 (V)              0.450
vs.                 Ref
t2 (h:m:s)          0:00:0.0000
dt2 (s)             0.1000
nc cycles           14
nr                  1
Reverse Scan        0
Ef (V)              0.000
vs.                 Eoc
tf (h:m:s)          0:00:0.0000
dtf (s)             0.1000

mode	ox/red	error	control changes	Ns changes	counter inc.	time/s	control/V	Ewe/V	<I>/mA	cycle number	(Q-Qo)/C	I Range	Ns	step time/s	P/W
2	0	0	1	0	0	0.000000000000000E+000	0.449937	0.450417	-0.0110456	1	0.0000000E+000	11	0	0.000000000000000E+000	-4.97514e-06
2	1	0	0	0	0	12.4376	0.512125	0.512393	0.0917471	1	0.00111068	11	0	12.3828	4.70105e-05
2	1	0	1	0	0	24.9203	0.574539	0.574843	0.22814	1	0.00275074	11	0	24.8655	0.000131145
2	1	0	1	0	0	37.4029	0.636952	0.637188	1.45583	1	0.0113107	11	0	37.3481	0.000927637
2	1	0	0	0	0	49.8856	0.699365	0.699616	4.34918	1	0.0463194	11	0	49.8308	0.00304276
2	1	0	1	0	0	62.2457	0.6388	0.639104	1.43522	1	0.0809694	11	0	62.1909	0.000917257
2	1	0	0	0	0	74.7284	0.576386	0.576629	0.106152	1	0.0886071	11	0	74.6736	6.12105e-05
2	0	0	1	0	0	87.2111	0.513973	0.514223	-0.0713871	1	0.0883862	11	0	8.4882	-3.67088e-05
2	0	0	1	0	0	99.6937	0.45156	0.45187	-0.0995671	1	0.0873047	11	0	20.9708	-4.49914e-05
2	1	0	1	0	1	111.949	0.509729	0.510018	0.0870787	2	0.0882594	11	0	11.6838	4.44117e-05
2	1	0	1	0	1	124.432	0.572142	0.572425	0.20483	2	0.0897622	11	0	24.1664	0.00011725
2	1	0	1	0	1	136.914	0.634555	0.634796	1.33502	2	0.0974785	11	0	36.6491	0.000847466
2	1	0	1	0	1	149.397	0.696969	0.697275	4.15984	2	0.130547	11	0	49.1318	0.00290055
2	1	0	1	0	1	161.737	0.641296	0.641505	1.49321	2	0.165984	11	0	61.4719	0.000957904
2	1	0	1	0	1	174.22	0.578883	0.579156	0.120224	2	0.174061	11	0	73.9546	6.96284e-05
2	0	0	0	0	1	186.703	0.516469	0.516677	-0.0695348	2	0.173909	11	0	8.0888	-3.59271e-05
2	0	0	1	0	1	199.185	0.454056	0.454307	-0.0959667	2	0.172842	11	0	20.5714	-4.35983e-05
2	1	0	1	0	0	211.441	0.507232	0.507528	0.0859974	3	0.173696	11	0	11.1845	4.36461e-05
2	1	0	1	0	0	223.923	0.569646	0.569872	0.186603	3	0.175125	11	0	23.6672	0.00010634
2	1	0	1	0	0	236.406	0.632059	0.632366	1.23093	3	0.182144	11	0	36.1498	0.000778399
2	1	0	1	0	0	248.889	0.694472	0.694707	3.98418	3	0.213386	11	0	48.6325	0.00276784
2	1	0	1	0	0	261.229	0.643793	0.644091	1.55218	3	0.249558	11	0	60.9726	0.000999747
2	1	0	1	0	0	273.711	0.581379	0.581622	0.132996	3	0.258077	11	0	73.4553	7.73533e-05
2	0	0	1	0	0	286.194	0.518966	0.519197	-0.0678219	3	0.258	11	0	7.6894	-3.52129e-05
2	0	0	1	0	0	298.677	0.456553	0.456804	-0.0947616	3	0.256948	11	0	20.172	-4.32875e-05
2	1	0	1	0	1	310.932	0.504736	0.505007	0.0845426	4	0.257706	11	0	10.6852	4.26946e-05
2	1	0	1	0	1	323.415	0.567149	0.567407	0.170313	4	0.259073	11	0	23.1678	9.66369e-05
2	1	0	0	0	1	335.897	0.629562	0.629853	1.1354	4	0.265465	11	0	35.6505	0.000715133
2	1	0	1	0	1	348.38	0.691976	0.692256	3.82206	4	0.295025	11	0	48.1332	0.00264585
2	1	0	0	0	1	360.72	0.646289	0.646543	1.63145	4	0.332105	11	0	60.4733	0.0010548
2	1	0	1	0	1	373.203	0.583876	0.584143	0.153592	4	0.341253	11	0	72.956	8.97196e-05
2	0	0	1	0	1	385.685	0.521463	0.521681	-0.0660878	4	0.341265	11	0	7.2898	-3.44767e-05
2	0	0	0	0	1	398.168	0.459049	0.459322	-0.0956806	4	0.34023	11	0	19.7725	-4.39482e-05
2	1	0	0	0	0	410.424	0.502239	0.502518	0.0857183	5	0.340894	11	0	10.1859	4.3075e-05
2	1	0	1	0	0	422.906	0.564653	0.564875	0.158612	5	0.342211	11	0	22.6686	8.9596e-05
2	1	0	1	0	0	435.389	0.627066	0.627305	1.0408	5	0.348046	11	0	35.1512	0.0006529
2	1	0	0	0	0	447.872	0.689479	0.689729	3.65725	5	0.375917	11	0	47.6339	0.00252251
2	1	0	1	0	0	460.212	0.648786	0.649052	1.66937	5	0.413356	11	0	59.974	0.00108351
2	1	0	0	0	0	472.694	0.586372	0.586636	0.168156	5	0.422866	11	0	72.4567	9.86464e-05
2	0	0	1	0	0	485.177	0.523958	0.524252	-0.0662583	5	0.422964	11	0	6.9904	-3.47361e-05
2	0	0	1	0	0	497.66	0.461546	0.461814	-0.0929047	5	0.421943	11	0	19.473	-4.29047e-05
2	1	0	1	0	1	509.915	0.499743	0.499983	0.0835765	6	0.422514	11	0	9.6866	4.17868e-05
2	1	0	1	0	1	522.398	0.562156	0.562411	0.150256	6	0.423785	11	0	22.1692	8.45053e-05
2	1	0	1	0	1	534.88	0.624569	0.624798	0.957695	6	0.429113	11	0	34.6519	0.000598366
2	1	0	1	0	1	547.363	0.686983	0.687221	3.53149	6	0.455552	11	0	47.1346	0.00242691
2	1	0	1	0	1	559.703	0.651282	0.65151	1.79203	6	0.494141	11	0	59.4747	0.00116752
2	1	0	1	0	1	572.186	0.588869	0.589159	0.193066	6	0.504508	11	0	71.9574	0.000113747
2	0	0	1	0	1	584.668	0.526456	0.526731	-0.063254	6	0.504721	11	0	6.3911	-3.33178e-05
2	0	0	1	0	1	597.151	0.464042	0.464271	-0.0922489	6	0.50372	11	0	18.8738	-4.28285e-05
2	1	0	1	0	0	609.407	0.497246	0.497502	0.0835738	7	0.504202	11	0	9.1873	4.15781e-05
2	1	0	0	0	0	621.889	0.559659	0.559939	0.141283	7	0.505437	11	0	21.6699	7.91099e-05
2	1	0	1	0	0	634.372	0.622073	0.62235	0.880651	7	0.510312	11	0	34.1526	0.000548073
2	1	0	1	0	0	646.854	0.684486	0.684741	3.36914	7	0.535231	11	0	46.6352	0.00230699
2	1	0	1	0	0	659.195	0.653779	0.654008	1.89018	7	0.574374	11	0	58.9754	0.00123619
2	1	0	1	0	0	671.677	0.591366	0.591597	0.217878	7	0.585452	11	0	71.458	0.000128896
2	0	0	0	0	0	684.16	0.528952	0.529212	-0.0617533	7	0.585785	11	0	5.9917	-3.26805e-05
2	0	0	1	0	0	696.643	0.466539	0.466786	-0.0918502	7	0.584805	11	0	18.4744	-4.28744e-05
2	1	0	1	0	1	708.898	0.49475	0.49501	0.0859665	8	0.585197	11	0	8.688	4.25543e-05
2	1	0	1	0	1	721.381	0.557163	0.557489	0.130408	8	0.586402	11	0	21.1706	7.2701e-05
2	1	0	0	0	1	733.863	0.619576	0.619858	0.806637	8	0.590855	11	0	33.6533	0.000500001
2	1	0	1	0	1	746.346	0.68199	0.682267	3.22675	8	0.614314	11	0	46.136	0.00220151
2	1	0	0	0	1	758.686	0.656275	0.656531	1.97121	8	0.653823	11	0	58.4761	0.00129416
2	1	0	1	0	1	771.169	0.593862	0.5941	0.244756	8	0.665636	11	0	70.9588	0.00014541
2	0	0	1	0	1	783.651	0.531449	0.531756	-0.0593081	8	0.666091	11	0	5.5922	-3.15374e-05
[...]
2	1	0	1	0	1	970.152	0.598854	0.599126	0.293865	10	0.822543	11	0	69.9602	0.000176062
2	0	0	1	0	1	982.634	0.536442	0.536717	-0.0535979	10	0.823253	11	0	4.6935	-2.87669e-05
2	0	0	1	0	1	995.117	0.474028	0.47426	-0.0861136	10	0.822324	11	0	17.1762	-4.08402e-05
2	1	0	1	0	0	1007.37	0.48726	0.487479	0.0821304	11	0.822452	11	0	7.19	4.00368e-05
2	1	0	0	0	0	1019.86	0.549673	0.549959	0.112983	11	0.82358	11	0	19.6727	6.21359e-05
2	1	0	1	0	0	1032.34	0.612087	0.612355	0.612607	11	0.826987	11	0	32.1554	0.000375133
2	1	0	1	0	0	1044.82	0.6745	0.674766	2.77128	11	0.846279	11	0	44.638	0.00186996
2	1	0	1	0	0	1057.16	0.663765	0.664024	2.19812	11	0.885844	11	0	56.9782	0.00145961
2	1	0	1	0	0	1069.64	0.601352	0.601623	0.323897	11	0.899662	11	0	69.4608	0.000194864
2	0	0	0	0	0	1082.13	0.538938	0.539198	-0.0515669	11	0.900525	11	0	4.294	-2.78048e-05
2	0	0	1	0	0	1094.61	0.476525	0.476826	-0.0860097	11	0.899614	11	0	16.7767	-4.10117e-05
2	1	0	1	0	1	1106.86	0.484763	0.485023	0.0809712	12	0.899654	11	0	6.6907	3.92729e-05
2	1	0	1	0	1	1119.35	0.547177	0.547445	0.108754	12	0.900759	11	0	19.1734	5.95367e-05
2	1	0	1	0	1	1131.83	0.60959	0.6099	0.558854	12	0.903884	11	0	31.656	0.000340845
2	1	0	1	0	1	1144.31	0.672003	0.672276	2.62891	12	0.921907	11	0	44.1387	0.00176735
2	1	0	0	0	1	1156.65	0.666261	0.66649	2.28315	12	0.961375	11	0	56.4789	0.0015217
2	1	0	1	0	1	1169.13	0.603848	0.604139	0.355365	12	0.975882	11	0	68.9615	0.00021469
2	0	0	1	0	1	1181.62	0.541435	0.541725	-0.0451761	12	0.976903	11	0	3.9944	-2.4473e-05
2	0	0	1	0	1	1194.1	0.479022	0.479311	-0.0854135	12	0.97601	11	0	16.477	-4.09396e-05
2	1	0	1	0	0	1206.36	0.482267	0.482522	0.0837619	13	0.975967	11	0	6.1914	4.04169e-05
2	1	0	1	0	0	1218.84	0.54468	0.544979	0.104484	13	0.977057	11	0	18.6741	5.69416e-05
2	1	0	1	0	0	1231.32	0.607094	0.607357	0.508277	13	0.979934	11	0	31.1568	0.000308706
2	1	0	1	0	0	1243.8	0.669507	0.669794	2.50479	13	0.99683	11	0	43.6394	0.0016777
2	1	0	1	0	0	1256.14	0.668758	0.669016	2.36723	13	1.03623	11	0	55.9796	0.00158371
2	1	0	1	0	0	1268.63	0.606345	0.606536	0.391123	13	1.05159	11	0	68.4622	0.00023723
2	0	0	1	0	0	1281.11	0.543931	0.544205	-0.0442523	13	1.0528	11	0	3.4951	-2.40823e-05
2	0	0	1	0	0	1293.59	0.481518	0.481797	-0.0862946	13	1.05192	11	0	15.9778	-4.15765e-05
2	1	0	0	0	1	1305.85	0.47977	0.479999	0.0834891	14	1.0518	11	0	5.6921	4.00746e-05
2	1	0	1	0	1	1318.33	0.542184	0.542429	0.101135	14	1.05287	11	0	18.1748	5.48584e-05
2	1	0	1	0	1	1330.81	0.604597	0.604913	0.462898	14	1.05553	11	0	30.6574	0.000280013
2	1	0	0	0	1	1343.29	0.66701	0.667248	2.36492	14	1.07123	11	0	43.1401	0.00157799
2	1	0	1	0	1	1355.64	0.671255	0.671453	2.47993	14	1.11025	11	0	55.4802	0.00166516
2	1	0	0	0	1	1368.12	0.608841	0.609133	0.425819	14	1.12649	11	0	67.9629	0.00025938
2	0	0	1	0	1	1380.6	0.546428	0.546621	-0.0386694	14	1.12789	11	0	2.9958	-2.11375e-05
2	0	0	1	0	1	1393.08	0.484015	0.484244	-0.0835777	14	1.12704	11	0	15.4784	-4.0472e-05
2	1	0	1	0	0	1405.34	0.477274	0.477566	0.0804085	15	1.12683	11	0	5.1928	3.84004e-05
2	1	0	0	0	0	1417.82	0.539687	0.539924	0.0984755	15	1.1279	11	0	17.6755	5.31693e-05
2	1	0	1	0	0	1430.3	0.602101	0.602393	0.423597	15	1.13036	11	0	30.1582	0.000255172
2	1	0	1	0	0	1442.79	0.664514	0.664764	2.24082	15	1.145	11	0	42.6408	0.00148962
2	1	0	1	0	0	1455.13	0.67375	0.673999	2.6112	15	1.18397	11	0	54.981	0.00175995
2	1	0	1	0	0	1467.61	0.611338	0.611587	0.467957	15	1.20128	11	0	67.4636	0.000286196
2	0	0	0	0	0	1480.09	0.548924	0.549187	-0.0333321	15	1.2029	11	0	2.5964	-1.83055e-05
2	0	0	1	0	0	1492.57	0.486511	0.486779	-0.0828233	15	1.20207	11	0	15.079	-4.03167e-05
2	0	0	0	0	0	1499.87	0.449987	0.450359	-0.0956888	15	1.20143	11	0	22.3762	-4.30943e-05