Folder: SI_for_publications/ACS_Catal_2026/Figures_Na_K/main_figures/data/EC/20240126_2-102_Add_Na (part 8)

File: 20240125_2-102_011_add_K_5mL_elctrode3_C01.mpt
EC-Lab ASCII FILE
Nb header lines : 66

Cyclic Voltammetry Advanced

Run on channel : 1 (SN 66412)
User :
CE vs. WE compliance from -10 V to 10 V
Electrode connection : standard
Potential control : Ewe
Ewe ctrl range : min = -1.00 V, max = 1.00 V
Safety Limits :
	Do not start on E overload
Acquisition started on : 01/26/2024 17:39:30.962
Loaded Setting File :  C:\Users\NakamuraT\Documents\EC-Lab\Data\Yatsuzuka\20240126_2-102_Add_Na\20240125_2-102_003_K_elctrode1.mps
Saved on :
	File : 20240125_2-102_011_add_K_5mL_elctrode3_C01.mpr
	Directory : C:\Users\NakamuraT\Documents\EC-Lab\Data\Yatsuzuka\20240126_2-102_Add_Na\
	Host : 192.109.209.100
Device : SP-150e (SN .003411)
Address : 192.109.209.236
EC-Lab for windows v11.50 (software)
Internet server v11.50 (firmware)
Command interpretor v11.50 (firmware)
Electrode material :
Initial state :
Electrolyte :
Comments :
Electrode surface area : 0.001 cm2
Characteristic mass : 0.001 g
Equivalent Weight : 0.000 g/eq.
Density : 0.000 g/cm3
Volume (V) : 0.001 cm3
Cycle Definition : Charge/Discharge alternance
Ei (V)              0.450
vs.                 Ref
ti (h:m:s)          0:00:10.0000
dti (s)             0.0000
dE/dt               5.000
dE/dt unit          mV/s
E1 (V)              0.700
vs.                 Ref
t1 (h:m:s)          0:00:0.0000
dt1 (s)             0.1000
Step percent        50
N                   10
E range min (V)     -1.000
E range max (V)     1.000
I Range             10 mA
I Range min         Unset
I Range max         Unset
I Range init        Unset
Bandwidth           5
E2 (V)              0.450
vs.                 Ref
t2 (h:m:s)          0:00:0.0000
dt2 (s)             0.1000
nc cycles           14
nr                  1
Reverse Scan        0
Ef (V)              0.000
vs.                 Eoc
tf (h:m:s)          0:00:0.0000
dtf (s)             0.1000

mode	ox/red	error	control changes	Ns changes	counter inc.	time/s	control/V	Ewe/V	<I>/mA	cycle number	(Q-Qo)/C	I Range	Ns	step time/s	P/W
2	0	0	1	0	0	0.000000000000000E+000	0.44994	0.45041	-0.00662956	1	0.0000000E+000	11	0	0.000000000000000E+000	-2.98602e-06
2	1	0	0	0	0	12.4572	0.512226	0.512483	0.0695489	1	0.000814846	11	0	12.4022	3.56426e-05
2	1	0	1	0	0	24.9594	0.574737	0.575045	0.210154	1	0.00218191	11	0	24.9044	0.000120848
2	1	0	0	0	0	37.4616	0.637249	0.637543	1.44523	1	0.0105946	11	0	37.4066	0.000921396
2	1	0	1	0	0	49.9588	0.699735	0.700041	4.2874	1	0.045307	11	0	49.9038	0.00300136
2	1	0	0	0	0	62.274	0.638649	0.638951	1.38639	1	0.0789663	11	0	62.219	0.000885837
2	1	0	1	0	0	74.7762	0.576138	0.576472	0.115579	1	0.0864482	11	0	74.7212	6.66281e-05
2	0	0	0	0	0	87.2784	0.513627	0.51393	-0.0515072	1	0.086428	11	0	7.6014	-2.64711e-05
2	0	0	1	0	0	99.7806	0.451115	0.451451	-0.0736558	1	0.0856201	11	0	20.1036	-3.3252e-05
2	1	0	1	0	1	112.156	0.510776	0.511079	0.0663051	2	0.0863478	11	0	11.902	3.38871e-05
2	1	0	0	0	1	124.658	0.573287	0.573623	0.194948	2	0.0876349	11	0	24.4042	0.000111827
2	1	0	0	0	1	137.161	0.635798	0.636115	1.37695	2	0.0955391	11	0	36.9066	0.000875899
2	1	0	1	0	1	149.663	0.698309	0.698569	4.19677	2	0.129199	11	0	49.4088	0.00293173
2	1	0	0	0	1	161.963	0.640149	0.640443	1.43962	2	0.163537	11	0	61.709	0.000921994
2	1	0	1	0	1	174.465	0.577638	0.577909	0.122532	2	0.171382	11	0	74.2112	7.08125e-05
2	0	0	0	0	1	186.967	0.515127	0.515451	-0.0518723	2	0.171405	11	0	7.3014	-2.67376e-05
2	0	0	1	0	1	199.47	0.452616	0.452909	-0.0730966	2	0.170604	11	0	19.8036	-3.31061e-05
2	1	0	1	0	0	211.845	0.509276	0.509572	0.0669421	3	0.171287	11	0	11.602	3.41118e-05
2	1	0	0	0	0	224.347	0.571787	0.572106	0.183927	3	0.172527	11	0	24.1042	0.000105226
2	1	0	1	0	0	236.849	0.634298	0.63462	1.31344	3	0.179998	11	0	36.6064	0.000833538
2	1	0	0	0	0	249.352	0.696809	0.697105	4.09585	3	0.212596	11	0	49.1086	0.00285523
2	1	0	1	0	0	261.652	0.641649	0.641968	1.47977	3	0.247518	11	0	61.4088	0.000949967
2	1	0	1	0	0	274.154	0.579138	0.579485	0.132394	3	0.255647	11	0	73.9111	7.67206e-05
2	0	0	0	0	0	286.656	0.516627	0.516916	-0.0506587	3	0.255712	11	0	7.0014	-2.61863e-05
2	0	0	1	0	0	299.159	0.454116	0.454395	-0.0724025	3	0.254919	11	0	19.5036	-3.28993e-05
2	1	0	1	0	1	311.534	0.507776	0.508086	0.065559	4	0.255558	11	0	11.302	3.33096e-05
2	1	0	0	0	1	324.036	0.570287	0.570634	0.173539	4	0.256752	11	0	23.8042	9.90275e-05
2	1	0	1	0	1	336.538	0.632798	0.633086	1.25146	4	0.263802	11	0	36.3064	0.000792284
2	1	0	0	0	1	349.041	0.695309	0.695638	3.99834	4	0.295372	11	0	48.8086	0.0027814
2	1	0	1	0	1	361.341	0.64315	0.643435	1.52709	4	0.330959	11	0	61.1088	0.000982581
2	1	0	0	0	1	373.843	0.580638	0.58091	0.141059	4	0.339413	11	0	73.611	8.19424e-05
2	0	0	0	0	1	386.345	0.518127	0.518455	-0.0511945	4	0.339518	11	0	6.9012	-2.6542e-05
2	0	0	1	0	1	398.847	0.455616	0.455931	-0.0732747	4	0.338732	11	0	19.4035	-3.34082e-05
2	1	0	1	0	0	411.223	0.506275	0.506584	0.0638051	5	0.339328	11	0	11.0019	3.23226e-05
2	1	0	1	0	0	423.725	0.568786	0.569115	0.161757	5	0.340481	11	0	23.5042	9.20586e-05
2	1	0	0	0	0	436.227	0.631297	0.631655	1.18864	5	0.347135	11	0	36.0064	0.000750811
2	1	0	1	0	0	448.73	0.693809	0.694112	3.90247	5	0.377685	11	0	48.5086	0.00270875
2	1	0	0	0	0	461.03	0.64465	0.644924	1.55457	5	0.413681	11	0	60.8088	0.00100258
2	1	0	1	0	0	473.532	0.582139	0.582483	0.149197	5	0.422375	11	0	73.311	8.69049e-05
2	0	0	0	0	0	486.034	0.519628	0.519946	-0.0501681	5	0.422524	11	0	6.6012	-2.60847e-05
2	0	0	1	0	0	498.536	0.457117	0.457411	-0.0723941	5	0.421744	11	0	19.1034	-3.31139e-05
2	1	0	1	0	1	510.912	0.504775	0.505078	0.0647317	6	0.422296	11	0	10.7018	3.26945e-05
2	1	0	0	0	1	523.414	0.567286	0.567574	0.154382	6	0.423413	11	0	23.204	8.76229e-05
2	1	0	1	0	1	535.916	0.629797	0.630091	1.13288	6	0.429696	11	0	35.7063	0.000713816
2	1	0	1	0	1	548.419	0.692308	0.692626	3.80787	6	0.459265	11	0	48.2086	0.00263743
2	1	0	0	0	1	560.719	0.64615	0.64644	1.60393	6	0.495699	11	0	60.5088	0.00103685
2	1	0	1	0	1	573.221	0.583639	0.583908	0.16309	6	0.504751	11	0	73.011	9.52295e-05
2	0	0	0	0	1	585.723	0.521128	0.521452	-0.0494863	6	0.504953	11	0	6.3012	-2.58047e-05
2	0	0	1	0	1	598.225	0.458617	0.458879	-0.0705048	6	0.504179	11	0	18.8034	-3.23531e-05
2	1	0	1	0	0	610.601	0.503275	0.503584	0.0641454	7	0.504688	11	0	10.4018	3.23026e-05
2	1	0	0	0	0	623.103	0.565786	0.566047	0.145177	7	0.505771	11	0	22.904	8.21773e-05
2	1	0	1	0	0	635.605	0.628297	0.628553	1.07778	7	0.511705	11	0	35.4062	0.000677445
2	1	0	0	0	0	648.107	0.690808	0.69107	3.71178	7	0.54028	11	0	47.9084	0.0025651
2	1	0	1	0	0	660.408	0.64765	0.647941	1.65097	7	0.577159	11	0	60.2086	0.00106973
2	1	0	0	0	0	672.91	0.585139	0.585498	0.17131	7	0.586538	11	0	72.7108	0.000100302
2	0	0	0	0	0	685.412	0.522628	0.522893	-0.0481993	7	0.586785	11	0	6.1012	-2.52031e-05
2	0	0	1	0	0	697.914	0.460117	0.46043	-0.0710451	7	0.58602	11	0	18.6034	-3.27113e-05
2	1	0	1	0	1	710.29	0.501774	0.502053	0.0645714	8	0.586488	11	0	10.1018	3.24182e-05
2	1	0	0	0	1	722.792	0.564286	0.564585	0.139024	8	0.587541	11	0	22.604	7.8491e-05
2	1	0	1	0	1	735.294	0.626797	0.627084	1.02457	8	0.593147	11	0	35.1062	0.000642492
2	1	0	0	0	1	747.796	0.689308	0.689536	3.61632	8	0.62078	11	0	47.6084	0.00249358
2	1	0	1	0	1	760.097	0.649151	0.649416	1.68393	8	0.657954	11	0	59.9086	0.00109357
2	1	0	0	0	1	772.599	0.58664	0.586968	0.183335	8	0.667652	11	0	72.4108	0.000107612
2	0	0	1	0	1	785.101	0.524128	0.524409	-0.0470581	8	0.667958	11	0	5.801	-2.46776e-05
[...]
2	1	0	0	0	1	971.977	0.58964	0.589915	0.211635	10	0.8298	11	0	71.8108	0.000124847
2	0	0	1	0	1	984.479	0.527129	0.527372	-0.0440193	10	0.830236	11	0	5.401	-2.32145e-05
2	0	0	0	0	1	996.981	0.464618	0.464972	-0.0696237	10	0.829494	11	0	17.9032	-3.23731e-05
2	1	0	0	0	0	1009.36	0.497274	0.497527	0.0625276	11	0.82984	11	0	9.2016	3.11092e-05
2	1	0	1	0	0	1021.86	0.559785	0.560109	0.120396	11	0.83082	11	0	21.7038	6.74351e-05
2	1	0	0	0	0	1034.36	0.622296	0.622612	0.882451	11	0.835567	11	0	34.206	0.000549424
2	1	0	1	0	0	1046.86	0.684807	0.685089	3.36877	11	0.860618	11	0	46.7082	0.00230791
2	1	0	0	0	0	1059.16	0.653651	0.653886	1.84975	11	0.899146	11	0	59.0084	0.00120952
2	1	0	1	0	0	1071.67	0.59114	0.591513	0.226249	11	0.910135	11	0	71.5106	0.000133829
2	0	0	1	0	0	1084.17	0.52863	0.528887	-0.0410842	11	0.91064	11	0	5.1009	-2.17289e-05
2	0	0	0	0	0	1096.67	0.466118	0.466456	-0.0678715	11	0.909908	11	0	17.6032	-3.16591e-05
2	1	0	0	0	1	1109.05	0.495773	0.496054	0.063316	12	0.910215	11	0	8.9016	3.14081e-05
2	1	0	1	0	1	1121.55	0.558285	0.558593	0.115849	12	0.911175	11	0	21.4038	6.47126e-05
2	1	0	0	0	1	1134.05	0.620796	0.62112	0.838969	12	0.915671	11	0	33.906	0.0005211
2	1	0	1	0	1	1146.55	0.683307	0.683632	3.28424	12	0.939893	11	0	46.4082	0.00224521
2	1	0	0	0	1	1158.85	0.655152	0.65552	1.91046	12	0.978763	11	0	58.7084	0.00125235
2	1	0	1	0	1	1171.35	0.592641	0.59295	0.24248	12	0.990213	11	0	71.2106	0.000143778
2	0	0	0	0	1	1183.86	0.530129	0.530466	-0.0401373	12	0.990792	11	0	4.8008	-2.12915e-05
2	0	0	1	0	1	1196.36	0.467618	0.467922	-0.0681555	12	0.990068	11	0	17.303	-3.18914e-05
2	1	0	1	0	0	1208.73	0.494273	0.494547	0.0633951	13	0.990337	11	0	8.6014	3.13519e-05
2	1	0	1	0	0	1221.24	0.556784	0.557067	0.111783	13	0.991279	11	0	21.1037	6.22707e-05
2	1	0	0	0	0	1233.74	0.619295	0.619589	0.79596	13	0.995529	11	0	33.606	0.000493168
2	1	0	1	0	0	1246.24	0.681806	0.682051	3.2036	13	1.01893	11	0	46.1082	0.00218502
2	1	0	0	0	0	1258.54	0.656652	0.656975	1.96222	13	1.05811	11	0	58.4084	0.00128913
2	1	0	1	0	0	1271.04	0.594141	0.594445	0.257165	13	1.06998	11	0	70.9106	0.000152871
2	0	0	0	0	0	1283.55	0.53163	0.531851	-0.0389439	13	1.07063	11	0	4.6008	-2.07123e-05
2	0	0	1	0	0	1296.05	0.469119	0.469453	-0.0678876	13	1.06992	11	0	17.103	-3.187e-05
2	1	0	1	0	1	1308.42	0.492773	0.493019	0.0616616	14	1.07015	11	0	8.3014	3.04004e-05
2	1	0	0	0	1	1320.93	0.555284	0.555659	0.106538	14	1.07107	11	0	20.8036	5.91987e-05
2	1	0	1	0	1	1333.43	0.617795	0.618112	0.755775	14	1.07509	11	0	33.3058	0.000467153
2	1	0	1	0	1	1345.93	0.680306	0.680599	3.11639	14	1.09767	11	0	45.8081	0.00212101
2	1	0	1	0	1	1358.23	0.658152	0.658453	2.01905	14	1.1371	11	0	58.1083	0.00132945
2	1	0	0	0	1	1370.73	0.595641	0.595931	0.27191	14	1.14945	11	0	70.6106	0.00016204
2	0	0	1	0	1	1383.23	0.53313	0.533424	-0.0375695	14	1.15018	11	0	4.2008	-2.00405e-05
2	0	0	0	0	1	1395.74	0.470619	0.470948	-0.0658671	14	1.14947	11	0	16.703	-3.102e-05
2	1	0	0	0	0	1408.11	0.491273	0.491633	0.0628418	15	1.14966	11	0	8.0014	3.08951e-05
2	1	0	1	0	0	1420.61	0.553784	0.554076	0.103944	15	1.15056	11	0	20.5036	5.75929e-05
2	1	0	0	0	0	1433.12	0.616295	0.616568	0.716752	15	1.15437	11	0	33.0058	0.000441926
2	1	0	1	0	0	1445.62	0.678806	0.679144	3.03509	15	1.17615	11	0	45.508	0.00206126
2	1	0	0	0	0	1457.92	0.659653	0.659956	2.06729	15	1.21571	11	0	57.8082	0.00136432
2	1	0	1	0	0	1470.42	0.597141	0.59748	0.287871	15	1.22844	11	0	70.3104	0.000171997
2	0	0	0	0	0	1482.92	0.53463	0.534985	-0.0364216	15	1.22925	11	0	4.0006	-1.9485e-05
2	0	0	1	0	0	1495.43	0.47212	0.472414	-0.0664776	15	1.22855	11	0	16.5029	-3.1405e-05
2	0	0	1	0	0	1499.84	0.44999	0.450314	-0.0792941	15	1.22824	11	0	20.9218	-3.57073e-05

File: 20240125_2-102_012_add_K_5mL_elctrode4_C02.mpt
EC-Lab ASCII FILE
Nb header lines : 66

Cyclic Voltammetry Advanced

Run on channel : 2 (SN 66414)
User :
CE vs. WE compliance from -10 V to 10 V
Electrode connection : standard
Potential control : Ewe
Ewe ctrl range : min = -1.00 V, max = 1.00 V
Safety Limits :
	Do not start on E overload
Acquisition started on : 01/26/2024 17:47:59.434
Loaded Setting File :  C:\Users\NakamuraT\Documents\EC-Lab\Data\Yatsuzuka\20240126_2-102_Add_Na\20240125_2-102_003_K_elctrode1.mps
Saved on :
	File : 20240125_2-102_012_add_K_5mL_elctrode4_C02.mpr
	Directory : C:\Users\NakamuraT\Documents\EC-Lab\Data\Yatsuzuka\20240126_2-102_Add_Na\
	Host : 192.109.209.100
Device : SP-150e (SN .003411)
Address : 192.109.209.236
EC-Lab for windows v11.50 (software)
Internet server v11.50 (firmware)
Command interpretor v11.50 (firmware)
Electrode material :
Initial state :
Electrolyte :
Comments :
Electrode surface area : 0.001 cm2
Characteristic mass : 0.001 g
Equivalent Weight : 0.000 g/eq.
Density : 0.000 g/cm3
Volume (V) : 0.001 cm3
Cycle Definition : Charge/Discharge alternance
Ei (V)              0.450
vs.                 Ref
ti (h:m:s)          0:00:10.0000
dti (s)             0.0000
dE/dt               5.000
dE/dt unit          mV/s
E1 (V)              0.700
vs.                 Ref
t1 (h:m:s)          0:00:0.0000
dt1 (s)             0.1000
Step percent        50
N                   10
E range min (V)     -1.000
E range max (V)     1.000
I Range             10 mA
I Range min         Unset
I Range max         Unset
I Range init        Unset
Bandwidth           5
E2 (V)              0.450
vs.                 Ref
t2 (h:m:s)          0:00:0.0000
dt2 (s)             0.1000
nc cycles           14
nr                  1
Reverse Scan        0
Ef (V)              0.000
vs.                 Eoc
tf (h:m:s)          0:00:0.0000
dtf (s)             0.1000

mode	ox/red	error	control changes	Ns changes	counter inc.	time/s	control/V	Ewe/V	<I>/mA	cycle number	(Q-Qo)/C	I Range	Ns	step time/s	P/W
2	0	0	0	0	0	0.000000000000000E+000	0.449961	0.450293	-0.0114913	1	0.0000000E+000	11	0	0.000000000000000E+000	-5.17444e-06
2	1	0	1	0	0	12.2565	0.511244	0.511525	0.138725	1	0.00130574	11	0	12.2015	7.09612e-05
2	1	0	1	0	0	24.5581	0.572752	0.573059	0.838758	1	0.00580666	11	0	24.5031	0.000480658
2	1	0	1	0	0	36.8596	0.63426	0.634487	3.56813	1	0.0308961	11	0	36.8046	0.00226393
2	1	0	1	0	0	49.1612	0.695768	0.696146	7.55372	1	0.0987195	11	0	49.1062	0.00525849
2	1	0	0	0	0	61.269	0.643661	0.643995	4.00903	1	0.171323	11	0	61.214	0.00258179
2	1	0	0	0	0	73.5706	0.582153	0.582414	0.989152	1	0.200156	11	0	73.5156	0.000576096
2	1	0	0	0	0	85.8722	0.520645	0.521032	0.00533462	1	0.204437	11	0	85.8172	2.77951e-06
2	0	0	0	0	0	98.1738	0.459137	0.459359	-0.095499	1	0.203654	11	0	12.1016	-4.38683e-05
2	1	0	0	0	1	110.353	0.501793	0.50213	0.120128	2	0.204469	11	0	10.1012	6.03199e-05
2	1	0	0	0	1	122.654	0.563301	0.563613	0.601131	2	0.207753	11	0	22.4028	0.000338805
2	1	0	0	0	1	134.956	0.624809	0.625147	3.00398	2	0.227702	11	0	34.7044	0.00187793
2	1	0	0	0	1	147.258	0.686317	0.68663	6.90215	2	0.287718	11	0	47.006	0.00473922
2	1	0	1	0	1	159.355	0.653162	0.653451	4.55958	2	0.365387	11	0	59.1038	0.00297946
2	1	0	1	0	1	171.657	0.591654	0.591914	1.30472	2	0.399857	11	0	71.4054	0.00077228
2	1	0	1	0	1	183.959	0.530146	0.530505	0.0530783	2	0.406144	11	0	83.707	2.81583e-05
2	0	0	1	0	1	196.26	0.468639	0.468905	-0.0915253	2	0.405577	11	0	10.2014	-4.29166e-05
2	1	0	1	0	0	208.439	0.492292	0.492615	0.10877	3	0.405997	11	0	8.201	5.35817e-05
2	1	0	1	0	0	220.741	0.553799	0.55412	0.430232	3	0.408488	11	0	20.5026	0.0002384
2	1	0	1	0	0	233.042	0.615307	0.615617	2.48272	3	0.424064	11	0	32.8042	0.00152841
2	1	0	1	0	0	245.344	0.676815	0.677122	6.21178	3	0.476631	11	0	45.1058	0.00420613
2	1	0	0	0	0	257.442	0.662664	0.662989	5.12262	3	0.557019	11	0	57.2036	0.00339624
2	1	0	0	0	0	269.743	0.601156	0.601486	1.67567	3	0.597385	11	0	69.5052	0.00100789
2	1	0	0	0	0	282.045	0.539648	0.539941	0.12352	3	0.606213	11	0	81.8068	6.66937e-05
2	0	0	0	0	0	294.347	0.47814	0.478458	-0.0818557	3	0.605963	11	0	8.4012	-3.91645e-05
2	1	0	0	0	1	306.526	0.48279	0.483147	0.0984973	4	0.606022	11	0	6.3008	4.75887e-05
2	1	0	0	0	1	318.827	0.544298	0.544617	0.311776	4	0.607989	11	0	18.6024	0.000169798
2	1	0	0	0	1	331.129	0.605806	0.606124	2.00991	4	0.619899	11	0	30.904	0.00121826
2	1	0	0	0	1	343.43	0.667314	0.667568	5.57382	4	0.665314	11	0	43.2056	0.0037209
2	1	0	1	0	1	355.528	0.672165	0.672534	5.78975	4	0.746761	11	0	55.3034	0.0038938
2	1	0	1	0	1	367.83	0.610657	0.610943	2.09743	4	0.794015	11	0	67.605	0.00128141
2	1	0	1	0	1	380.131	0.549149	0.549379	0.226466	4	0.806124	11	0	79.9066	0.000124415
2	0	0	1	0	1	392.433	0.487641	0.487976	-0.0751152	4	0.806346	11	0	6.501	-3.66544e-05
2	1	0	1	0	0	404.612	0.473289	0.473553	0.0984344	5	0.80607	11	0	4.4006	4.66139e-05
2	1	0	1	0	0	416.913	0.534797	0.535082	0.229376	5	0.807706	11	0	16.7021	0.000122735
2	1	0	1	0	0	429.215	0.596305	0.596522	1.58266	5	0.816634	11	0	29.0037	0.000944093
2	1	0	1	0	0	441.517	0.657813	0.658119	4.90733	5	0.855156	11	0	41.3053	0.00322961
2	1	0	1	0	0	453.614	0.681666	0.682041	6.33776	5	0.93411	11	0	53.403	0.00432262
2	1	0	1	0	0	465.916	0.620158	0.620467	2.5676	5	0.987689	11	0	65.7046	0.00159311
2	1	0	1	0	0	478.218	0.55865	0.558974	0.367589	5	1.00347	11	0	78.0062	0.000205473
2	0	0	1	0	0	490.519	0.497142	0.497544	-0.0631235	5	1.00436	11	0	4.6006	-3.14067e-05
2	1	0	1	0	1	502.698	0.463788	0.464058	0.0920901	6	1.00377	11	0	2.5002	4.27352e-05
2	1	0	1	0	1	515	0.525296	0.525537	0.178022	6	1.0052	11	0	14.8018	9.35572e-05
2	1	0	1	0	1	527.301	0.586804	0.587144	1.21255	6	1.01179	11	0	27.1034	0.000711941
2	1	0	1	0	1	539.603	0.648312	0.64854	4.30414	6	1.04407	11	0	39.405	0.00279141
2	1	0	0	0	1	551.701	0.691167	0.691565	7.1109	6	1.11919	11	0	51.5028	0.00491765
2	1	0	0	0	1	564.002	0.629659	0.629957	3.06202	6	1.18045	11	0	63.8044	0.00192894
2	1	0	0	0	1	576.304	0.568151	0.568498	0.557887	6	1.20064	11	0	76.106	0.000317158
2	0	0	0	0	1	588.606	0.506643	0.506943	-0.0463858	6	1.2025	11	0	2.8004	-2.35149e-05
2	1	0	0	0	0	600.785	0.454287	0.454585	0.0848623	7	1.20164	11	0	0.6	3.85771e-05
2	1	0	0	0	0	613.086	0.515795	0.516066	0.139669	7	1.20293	11	0	12.9016	7.20786e-05
2	1	0	0	0	0	625.388	0.577302	0.577519	0.911219	7	1.20777	11	0	25.2032	0.000526247
2	1	0	0	0	0	637.689	0.63881	0.639082	3.71639	7	1.23428	11	0	37.5048	0.00237508
2	1	0	1	0	0	649.922	0.699994	0.700098	7.71564	7	1.30359	11	0	49.7376	0.0054017
2	1	0	1	0	0	662.089	0.639161	0.639447	3.56692	7	1.37119	11	0	61.9042	0.00228085
2	1	0	1	0	0	674.39	0.577653	0.577924	0.793122	7	1.39613	11	0	74.2058	0.000458364
2	1	0	1	0	0	686.692	0.516145	0.5165	-0.0212367	7	1.39928	11	0	0.9002	-1.09688e-05
2	0	0	1	0	0	698.994	0.454637	0.454987	-0.09741	7	1.3984	11	0	13.2018	-4.43203e-05
2	1	0	1	0	1	711.173	0.506293	0.50662	0.121498	8	1.39939	11	0	11.0014	6.15533e-05
2	1	0	1	0	1	723.474	0.567801	0.568056	0.666169	8	1.40296	11	0	23.303	0.000378422
2	1	0	1	0	1	735.776	0.629309	0.629585	3.15958	8	1.42434	11	0	35.6046	0.00198922
2	1	0	1	0	1	748.077	0.690817	0.691093	7.08241	8	1.48649	11	0	47.9062	0.0048946
2	1	0	0	0	1	760.175	0.648662	0.648955	4.18486	8	1.56075	11	0	60.004	0.00271579
2	1	0	0	0	1	772.477	0.587154	0.587426	1.09921	8	1.59155	11	0	72.3056	0.000645702
2	1	0	0	0	1	784.778	0.525646	0.525883	0.0169747	8	1.59648	11	0	84.6072	8.92668e-06
[...]
2	1	0	1	0	1	980.951	0.544648	0.544924	0.160844	10	1.98742	11	0	80.8066	8.76478e-05
2	0	0	1	0	1	993.253	0.48314	0.483506	-0.0760696	10	1.98735	11	0	7.601	-3.67801e-05
2	1	0	1	0	0	1005.43	0.47779	0.478082	0.0983647	11	1.98723	11	0	5.3006	4.70264e-05
2	1	0	1	0	0	1017.73	0.539298	0.5396	0.254663	11	1.98895	11	0	17.6022	0.000137416
2	1	0	1	0	0	1030.03	0.600806	0.60121	1.71551	11	1.99878	11	0	29.9038	0.00103138
2	1	0	1	0	0	1042.34	0.662313	0.662641	5.13058	11	2.03944	11	0	42.2054	0.00339973
2	1	0	0	0	0	1054.43	0.677165	0.677454	5.96679	11	2.11873	11	0	54.3032	0.00404223
2	1	0	0	0	0	1066.74	0.615657	0.615917	2.27766	11	2.1682	11	0	66.6048	0.00140285
2	1	0	0	0	0	1079.04	0.55415	0.554503	0.276323	11	2.18161	11	0	78.9064	0.000153222
2	0	0	0	0	0	1091.34	0.492642	0.492944	-0.0700662	11	2.18208	11	0	5.7008	-3.45387e-05
2	1	0	0	0	1	1103.52	0.468288	0.46857	0.0929261	12	2.18163	11	0	3.4004	4.35424e-05
2	1	0	0	0	1	1115.82	0.529796	0.53009	0.191792	12	2.18311	11	0	15.702	0.000101667
2	1	0	0	0	1	1128.12	0.591304	0.591564	1.33176	12	2.19042	11	0	28.0036	0.000787821
2	1	0	0	0	1	1140.42	0.652812	0.653123	4.50218	12	2.22466	11	0	40.3052	0.00294048
2	1	0	1	0	1	1152.52	0.686667	0.686947	6.6178	12	2.30043	11	0	52.403	0.00454608
2	1	0	1	0	1	1164.82	0.625159	0.625463	2.72072	12	2.35682	11	0	64.7046	0.00170171
2	1	0	1	0	1	1177.12	0.563651	0.56396	0.433621	12	2.3741	11	0	77.0062	0.000244545
2	0	0	1	0	1	1189.43	0.502143	0.502389	-0.053162	12	2.37534	11	0	3.8006	-2.6708e-05
2	1	0	1	0	0	1201.6	0.458787	0.45909	0.0894622	13	2.3746	11	0	1.5002	4.10712e-05
2	1	0	1	0	0	1213.91	0.520295	0.520588	0.149564	13	2.37592	11	0	13.8018	7.78615e-05
2	1	0	1	0	0	1226.21	0.581803	0.582088	1.01094	13	2.38133	11	0	26.1034	0.000588454
2	1	0	1	0	0	1238.51	0.643311	0.643613	3.92144	13	2.40977	11	0	38.405	0.00252389
2	1	0	0	0	0	1250.61	0.696168	0.696425	7.30714	13	2.48038	11	0	50.5028	0.00508888
2	1	0	0	0	0	1262.91	0.63466	0.634969	3.21979	13	2.54371	11	0	62.8044	0.00204447
2	1	0	1	0	0	1275.21	0.573152	0.573478	0.64016	13	2.56548	11	0	75.1059	0.000367118
2	0	0	1	0	0	1287.51	0.511644	0.511936	-0.0318069	13	2.56782	11	0	1.9003	-1.62831e-05
2	0	0	1	0	0	1299.8	0.450211	0.450552	-0.0969851	13	2.56689	11	0	14.1868	-4.36968e-05
2	1	0	1	0	1	1311.99	0.510794	0.511058	0.128881	14	2.56806	11	0	11.9014	6.58656e-05
2	1	0	1	0	1	1324.29	0.572302	0.572651	0.754701	14	2.57208	11	0	24.203	0.00043218
2	1	0	1	0	1	1336.6	0.63381	0.634106	3.36467	14	2.59539	11	0	36.5046	0.00213356
2	1	0	1	0	1	1348.9	0.695318	0.695654	7.27972	14	2.66028	11	0	48.8062	0.00506417
2	1	0	0	0	1	1360.99	0.644161	0.644436	3.82465	14	2.73026	11	0	60.904	0.00246474
2	1	0	0	0	1	1373.3	0.582653	0.582964	0.928228	14	2.75773	11	0	73.2056	0.000541123
2	0	0	0	0	1	1385.6	0.521145	0.521473	-0.00447689	14	2.76166	11	0	0.000000000000000E+000	-2.33458e-06
2	0	0	0	0	1	1397.9	0.459637	0.459936	-0.0908896	14	2.76087	11	0	12.2016	-4.18034e-05
2	1	0	0	0	0	1410.08	0.501293	0.50154	0.111955	15	2.76163	11	0	10.0012	5.61501e-05
2	1	0	0	0	0	1422.38	0.562801	0.563065	0.552918	15	2.76465	11	0	22.3028	0.000311329
2	1	0	0	0	0	1434.68	0.624309	0.624631	2.85778	15	2.78335	11	0	34.6044	0.00178505
2	1	0	0	0	0	1446.98	0.685817	0.686105	6.67245	15	2.84113	11	0	46.906	0.004578
2	1	0	1	0	0	1459.08	0.653662	0.653958	4.40338	15	2.91666	11	0	59.0038	0.00287962
2	1	0	1	0	0	1471.38	0.592154	0.59253	1.24663	15	2.94977	11	0	71.3054	0.000738666
2	1	0	1	0	0	1483.68	0.530646	0.530903	0.0434061	15	2.95571	11	0	83.607	2.30444e-05
2	0	0	1	0	0	1495.99	0.469139	0.469424	-0.0876187	15	2.95513	11	0	10.4014	-4.11303e-05
2	0	0	0	0	0	1499.81	0.450011	0.450293	-0.104535	15	2.95478	11	0	14.2242	-4.70715e-05