Folder: SI_for_publications/ACS_Catal_2026/Figures_Na_K/main_figures/data/EC/20240126_2-102_Add_Na (part 6)

File: 20240125_2-102_008_preconditiioning_elctrode4_01_CVA_C02.mpt
EC-Lab ASCII FILE
Nb header lines : 66

Cyclic Voltammetry Advanced

Run on channel : 2 (SN 66414)
User :
CE vs. WE compliance from -10 V to 10 V
Electrode connection : standard
Potential control : Ewe
Ewe ctrl range : min = -1.00 V, max = 1.00 V
Safety Limits :
	Do not start on E overload
Acquisition started on : 01/26/2024 17:15:30.810
Loaded Setting File :  C:\Users\NakamuraT\Documents\EC-Lab\Data\Yatsuzuka\20240126_2-102_Add_Na\20240125_2-102_007_preconditioning_elctrode3.mps
Saved on :
	File : 20240125_2-102_008_preconditiioning_elctrode4_01_CVA_C02.mpr
	Directory : C:\Users\NakamuraT\Documents\EC-Lab\Data\Yatsuzuka\20240126_2-102_Add_Na\
	Host : 192.109.209.100
Device : SP-150e (SN .003411)
Address : 192.109.209.236
EC-Lab for windows v11.50 (software)
Internet server v11.50 (firmware)
Command interpretor v11.50 (firmware)
Electrode material :
Initial state :
Electrolyte :
Comments :
Electrode surface area : 0.001 cm2
Characteristic mass : 0.001 g
Equivalent Weight : 0.000 g/eq.
Density : 0.000 g/cm3
Volume (V) : 0.001 cm3
Cycle Definition : Charge/Discharge alternance
Ei (V)              0.350
vs.                 Ref
ti (h:m:s)          0:00:10.0000
dti (s)             1.0000
dE/dt               10.000
dE/dt unit          mV/s
E1 (V)              0.450
vs.                 Ref
t1 (h:m:s)          0:00:0.0000
dt1 (s)             0.1000
Step percent        50
N                   10
E range min (V)     -1.000
E range max (V)     1.000
I Range             Auto
I Range min         Unset
I Range max         Unset
I Range init        Unset
Bandwidth           5
E2 (V)              0.350
vs.                 Ref
t2 (h:m:s)          0:00:0.0000
dt2 (s)             0.1000
nc cycles           9
nr                  1
Reverse Scan        0
Ef (V)              0.000
vs.                 Eoc
tf (h:m:s)          0:00:0.0000
dtf (s)             0.1000

mode	ox/red	error	control changes	Ns changes	counter inc.	time/s	control/V	Ewe/V	<I>/mA	cycle number	(Q-Qo)/C	I Range	Ns	step time/s	P/W
2	1	0	0	0	0	0.000000000000000E+000	0.349998	0.350332	14.794	1	0.0000000E+000	10	0	0.000000000000000E+000	0.00518283
2	1	0	1	0	0	11.1775	0.361725	0.362008	0.43256	1	0.0139271	12	0	10.1741	0.00015659
2	1	0	1	0	0	12.8777	0.378727	0.379029	0.445497	1	0.0146808	12	0	11.8743	0.000168856
2	1	0	1	0	0	14.5779	0.395729	0.395928	0.454452	1	0.0154473	12	0	13.5745	0.00017993
2	1	0	1	0	0	16.2783	0.412731	0.412942	0.449291	1	0.0162178	12	0	15.2749	0.000185531
2	1	0	1	0	0	17.9785	0.429733	0.430063	0.455253	1	0.0169877	12	0	16.9751	0.000195787
2	1	0	1	0	0	19.6787	0.446736	0.447057	0.456442	1	0.0177625	12	0	18.6753	0.000204055
2	0	0	1	0	0	21.3153	0.436884	0.437152	-0.0630583	1	0.0179952	13	0	0.5151	-2.7566e-05
2	0	0	1	0	0	23.0455	0.419582	0.419812	-0.147488	1	0.0177973	12	0	2.2453	-6.19173e-05
2	0	0	1	0	0	24.7457	0.40258	0.402914	-0.19658	1	0.0175009	12	0	3.9455	-7.92047e-05
2	0	0	1	0	0	26.4459	0.385578	0.385917	-0.227965	1	0.0171389	12	0	5.6457	-8.79756e-05
2	0	0	1	0	0	28.1461	0.368576	0.368956	-0.259532	1	0.0167235	12	0	7.3459	-9.57559e-05
2	0	0	1	0	0	29.8463	0.351573	0.351884	-0.287717	1	0.0162583	12	0	9.0461	-0.000101243
2	1	0	1	0	1	31.4791	0.364775	0.365133	0.310687	2	0.0164785	12	0	1.2	0.000113442
2	1	0	1	0	1	33.1795	0.381777	0.382021	0.323127	2	0.0170232	12	0	2.9004	0.000123442
2	1	0	1	0	1	34.8797	0.398779	0.399105	0.313481	2	0.0175636	12	0	4.6006	0.000125112
2	1	0	1	0	1	36.5799	0.415782	0.416171	0.313936	2	0.0180961	12	0	6.3008	0.000130651
2	1	0	1	0	1	38.2801	0.432784	0.433086	0.315431	2	0.0186301	12	0	8.001	0.000136609
2	1	0	1	0	1	39.9778	0.449761	0.450095	0.335064	2	0.0191794	12	0	9.6987	0.00015081
2	0	0	1	0	1	41.5819	0.434184	0.434619	-0.150042	2	0.0190964	12	0	1.2002	-6.52113e-05
2	0	0	1	0	1	43.2821	0.417182	0.417508	-0.198922	2	0.0187964	12	0	2.9004	-8.30514e-05
2	0	0	1	0	1	44.9823	0.40018	0.400495	-0.221262	2	0.0184386	12	0	4.6006	-8.86143e-05
2	0	0	1	0	1	46.6825	0.383177	0.383459	-0.251431	2	0.0180368	12	0	6.3008	-9.64137e-05
2	0	0	1	0	1	48.3827	0.366175	0.36641	-0.269684	2	0.0175938	12	0	8.001	-9.8815e-05
2	0	0	1	0	0	50.0257	0.350273	0.350549	-0.252633	3	0.0171268	12	0	9.644	-8.85603e-05
2	1	0	1	0	0	51.7259	0.367275	0.367573	0.300689	3	0.0174544	12	0	1.4502	0.000110525
2	1	0	1	0	0	53.4261	0.384278	0.384666	0.299261	3	0.0179668	12	0	3.1504	0.000115116
2	1	0	1	0	0	55.1263	0.40128	0.401625	0.289897	3	0.0184685	12	0	4.8506	0.00011643
2	1	0	1	0	0	56.8265	0.418282	0.418573	0.288664	3	0.0189594	12	0	6.5508	0.000120827
2	1	0	1	0	0	58.5267	0.435284	0.435586	0.284961	3	0.0194471	12	0	8.251	0.000124125
2	1	0	1	0	0	60.1283	0.448686	0.449042	0.11511	3	0.0199025	12	0	9.8526	5.16893e-05
2	0	0	1	0	0	61.8285	0.431684	0.431962	-0.176164	3	0.0197017	12	0	1.5002	-7.60963e-05
2	0	0	1	0	0	63.5287	0.414681	0.415001	-0.212719	3	0.0193696	12	0	3.2004	-8.82786e-05
2	0	0	1	0	0	65.2289	0.397679	0.397955	-0.230358	3	0.0189923	12	0	4.9006	-9.16722e-05
2	0	0	1	0	0	66.9292	0.380677	0.380955	-0.258783	3	0.0185768	12	0	6.6009	-9.8585e-05
2	0	0	1	0	0	68.6295	0.363675	0.363962	-0.274046	3	0.0181233	12	0	8.3012	-9.97424e-05
2	1	0	1	0	1	70.2723	0.352774	0.352987	0.034131	4	0.0177013	12	0	0.000000000000000E+000	1.20478e-05
2	1	0	1	0	1	71.9725	0.369776	0.370036	0.294434	4	0.0181149	12	0	1.7002	0.000108951
2	1	0	1	0	1	73.6727	0.386778	0.387046	0.288985	4	0.0186107	12	0	3.4004	0.00011185
2	1	0	1	0	1	75.3729	0.40378	0.404092	0.277248	4	0.0190924	12	0	5.1006	0.000112033
2	1	0	1	0	1	77.0731	0.420782	0.421212	0.276484	4	0.0195621	12	0	6.8008	0.000116458
2	1	0	1	0	1	78.7733	0.437785	0.438061	0.270506	4	0.0200269	12	0	8.501	0.000118498
2	0	0	1	0	1	80.3749	0.446186	0.44646	-0.0639166	4	0.0203896	12	0	0.1	-2.85362e-05
2	0	0	1	0	1	82.0751	0.429183	0.42936	-0.187997	4	0.0201211	12	0	1.8002	-8.07186e-05
2	0	0	1	0	1	83.7753	0.412181	0.412627	-0.221574	4	0.0197727	12	0	3.5004	-9.14273e-05
2	0	0	1	0	1	85.4757	0.395179	0.395483	-0.235639	4	0.0193845	12	0	5.2008	-9.31912e-05
2	0	0	1	0	1	87.1759	0.378177	0.378518	-0.262366	4	0.0189612	12	0	6.901	-9.93103e-05
2	0	0	1	0	1	88.8761	0.361175	0.361505	-0.281547	4	0.0185005	12	0	8.6012	-0.00010178
2	1	0	1	0	0	90.5189	0.355274	0.355611	0.170057	5	0.018176	12	0	0.25	6.04742e-05
2	1	0	1	0	0	92.2191	0.372276	0.372566	0.285666	5	0.0186274	12	0	1.9502	0.000106429
2	1	0	1	0	0	93.9193	0.389278	0.389616	0.284509	5	0.0191117	12	0	3.6504	0.000110849
2	1	0	1	0	0	95.6195	0.40628	0.406651	0.268267	5	0.0195804	12	0	5.3506	0.000109091
2	1	0	1	0	0	97.3197	0.423283	0.423655	0.268027	5	0.0200362	12	0	7.0508	0.000113551
2	1	0	1	0	0	99.0199	0.440285	0.440582	0.266237	5	0.0204872	12	0	8.751	0.000117299
2	0	0	1	0	0	100.621	0.443685	0.443979	-0.131893	5	0.0207418	12	0	0.35	-5.8558e-05
2	0	0	1	0	0	102.322	0.426684	0.426981	-0.198836	5	0.0204403	12	0	2.0503	-8.48991e-05
2	0	0	1	0	0	104.022	0.409681	0.410006	-0.220118	5	0.0200814	12	0	3.7506	-9.02498e-05
2	0	0	1	0	0	105.722	0.392679	0.392986	-0.245913	5	0.0196861	12	0	5.4508	-9.66403e-05
2	0	0	1	0	0	107.422	0.375676	0.375949	-0.259903	5	0.0192567	12	0	7.151	-9.77101e-05
2	0	0	1	0	0	109.123	0.358674	0.359004	-0.287985	5	0.0187913	12	0	8.8512	-0.000103388
2	1	0	1	0	1	110.765	0.357774	0.358158	0.22725	6	0.018588	12	0	0.5	8.13913e-05
2	1	0	1	0	1	112.466	0.374776	0.375104	0.286557	6	0.0190547	12	0	2.2002	0.000107489
2	1	0	1	0	1	114.166	0.391779	0.392077	0.271256	6	0.0195299	12	0	3.9004	0.000106353
[...]
2	1	0	1	0	0	139.513	0.445286	0.445621	0.254124	7	0.0212174	12	0	9.2512	0.000113243
2	0	0	1	0	0	141.115	0.438685	0.438956	-0.176957	7	0.0212456	12	0	0.8502	-7.76764e-05
2	0	0	1	0	0	142.815	0.421682	0.421989	-0.206156	7	0.0209133	12	0	2.5504	-8.69956e-05
2	0	0	1	0	0	144.515	0.40468	0.405037	-0.232469	7	0.0205401	12	0	4.2506	-9.41585e-05
2	0	0	1	0	0	146.215	0.387678	0.388015	-0.246495	7	0.0201344	12	0	5.9508	-9.56439e-05
2	0	0	1	0	0	147.916	0.370676	0.370957	-0.265731	7	0.0196961	12	0	7.651	-9.85749e-05
2	0	0	1	0	0	149.616	0.353674	0.353924	-0.293878	7	0.0192213	12	0	9.3512	-0.00010401
2	1	0	1	0	1	151.259	0.362775	0.363051	0.271645	8	0.0192893	12	0	1	9.8621e-05
2	1	0	1	0	1	152.959	0.379777	0.380036	0.277155	8	0.0197608	12	0	2.7002	0.000105329
2	1	0	1	0	1	154.659	0.396779	0.397075	0.261821	8	0.0202212	12	0	4.4006	0.000103962
2	1	0	1	0	1	156.359	0.413781	0.414024	0.25995	8	0.0206649	12	0	6.1008	0.000107625
2	1	0	1	0	1	158.06	0.430784	0.431077	0.250915	8	0.0210965	12	0	7.801	0.000108164
2	1	0	1	0	1	159.76	0.447786	0.448087	0.250471	8	0.0215242	12	0	9.5012	0.000112233
2	0	0	1	0	1	161.361	0.436184	0.436461	-0.18846	8	0.0214383	12	0	1.1002	-8.22554e-05
2	0	0	1	0	1	163.062	0.419182	0.419506	-0.2098	8	0.0210967	12	0	2.8004	-8.80126e-05
2	0	0	1	0	1	164.762	0.40218	0.402569	-0.23476	8	0.0207183	12	0	4.5006	-9.45069e-05
2	0	0	1	0	1	166.462	0.385178	0.385488	-0.252149	8	0.0203084	12	0	6.2008	-9.72004e-05
2	0	0	1	0	1	168.162	0.368176	0.368446	-0.267741	8	0.019866	12	0	7.901	-9.86481e-05
2	0	0	1	0	1	169.862	0.351173	0.351519	-0.29655	8	0.0193876	12	0	9.6012	-0.000104243
2	1	0	1	0	0	171.505	0.365275	0.365599	0.272305	9	0.0195966	12	0	1.2501	9.95542e-05
2	1	0	1	0	0	173.206	0.382277	0.382527	0.275599	9	0.0200653	12	0	2.9504	0.000105424
2	1	0	1	0	0	174.906	0.39928	0.399584	0.259459	9	0.0205195	12	0	4.6506	0.000103676
2	1	0	1	0	0	176.606	0.416282	0.416569	0.250758	9	0.0209566	12	0	6.3508	0.000104458
2	1	0	1	0	0	178.306	0.433284	0.433592	0.251832	9	0.0213823	12	0	8.051	0.000109192
2	1	0	0	0	0	179.975	0.450011	0.450522	0.254523	9	0.0217978	12	0	9.7201	0.000114668
2	0	0	1	0	0	181.608	0.433684	0.433964	-0.192964	9	0.021606	12	0	1.3502	-8.37397e-05
2	0	0	1	0	0	183.308	0.416682	0.417095	-0.219173	9	0.021257	12	0	3.0504	-9.14161e-05
2	0	0	1	0	0	185.008	0.39968	0.400005	-0.231078	9	0.0208738	12	0	4.7506	-9.24322e-05
2	0	0	1	0	0	186.709	0.382677	0.382956	-0.251987	9	0.0204601	12	0	6.4508	-9.65e-05
2	0	0	1	0	0	188.409	0.365675	0.365939	-0.276582	9	0.0200134	12	0	8.151	-0.000101212
2	0	0	1	0	1	190.052	0.350773	0.351057	-0.169938	10	0.0195525	12	0	9.794	-5.96578e-05
2	1	0	1	0	1	191.752	0.367775	0.368087	0.278199	10	0.0198805	12	0	1.5002	0.000102401
2	1	0	1	0	1	193.452	0.384778	0.38509	0.266201	10	0.0203454	12	0	3.2004	0.000102511
2	1	0	1	0	1	195.152	0.40178	0.402048	0.258338	10	0.0207935	12	0	4.9006	0.000103864
2	1	0	1	0	1	196.853	0.418782	0.419017	0.254101	10	0.0212254	12	0	6.6008	0.000106473
2	1	0	1	0	1	198.553	0.435784	0.436075	0.245007	10	0.0216461	12	0	8.301	0.000106841
2	1	0	1	0	1	200.154	0.448186	0.448467	0.0221068	10	0.022017	12	0	9.9026	9.91414e-06
2	0	0	1	0	1	201.855	0.431184	0.431483	-0.200415	10	0.0217525	12	0	1.6002	-8.64757e-05
2	0	0	1	0	1	203.555	0.414181	0.414324	-0.216585	10	0.0213975	12	0	3.3004	-8.97363e-05
2	0	0	1	0	1	205.255	0.397179	0.397474	-0.233492	10	0.0210102	12	0	5.0006	-9.28069e-05
2	0	0	1	0	1	206.955	0.380177	0.380357	-0.257729	10	0.0205922	12	0	6.701	-9.80291e-05
2	0	0	1	0	1	208.656	0.363175	0.363403	-0.275866	10	0.020141	12	0	8.4012	-0.00010025
2	0	0	0	0	1	209.971	0.349998	0.35018	-0.301433	10	0.0197668	12	0	9.7163	-0.000105556

File: 20240125_2-102_008_preconditiioning_elctrode4_02_PEIS_C02.mpt
EC-Lab ASCII FILE
Nb header lines : 63

Potentio Electrochemical Impedance Spectroscopy

Run on channel : 2 (SN 66414)
User :
CE vs. WE compliance from -10 V to 10 V
Electrode connection : standard
Potential control : Ewe
Ewe ctrl range : min = -1.00 V, max = 1.00 V
Safety Limits :
	Do not start on E overload
Acquisition started on : 01/26/2024 17:15:30.810
Loaded Setting File :  C:\Users\NakamuraT\Documents\EC-Lab\Data\Yatsuzuka\20240126_2-102_Add_Na\20240125_2-102_007_preconditioning_elctrode3.mps
Saved on :
	File : 20240125_2-102_008_preconditiioning_elctrode4_02_PEIS_C02.mpr
	Directory : C:\Users\NakamuraT\Documents\EC-Lab\Data\Yatsuzuka\20240126_2-102_Add_Na\
	Host : 192.109.209.100
Device : SP-150e (SN .003411)
Address : 192.109.209.236
EC-Lab for windows v11.50 (software)
Internet server v11.50 (firmware)
Command interpretor v11.50 (firmware)
Electrode material :
Initial state :
Electrolyte :
Comments :
Electrode surface area : 0.001 cm2
Characteristic mass : 0.001 g
Equivalent Weight : 0.000 g/eq.
Density : 0.000 g/cm3
Volume (V) : 0.001 cm3
Cycle Definition : Charge/Discharge alternance
Mode                Single sine
E (V)               0.4000
vs.                 Eoc
tE (h:m:s)          0:00:0.0000
record              0
dI                  0.000
unit dI             mA
dt (s)              0.000
fi                  500.000
unit fi             kHz
ff                  1.000
unit ff             Hz
Nd                  6
Points              per decade
spacing             Logarithmic
Va (mV)             10.0
pw                  0.10
Na                  2
corr                0
E range min (V)     -1.000
E range max (V)     1.000
I Range             Auto
Bandwidth           5
nc cycles           0
goto Ns'            0
nr cycles           0
inc. cycle          0

freq/Hz	Re(Z)/Ohm	-Im(Z)/Ohm	|Z|/Ohm	Phase(Z)/deg	time/s	<Ewe>/V	<I>/mA	Cs/uF	Cp/uF	cycle number	I Range	|Ewe|/V	|I|/A	Ns	(Q-Qo)/mA.h	Re(Y)/Ohm-1	Im(Y)/Ohm-1	|Y|/Ohm-1	Phase(Y)/deg	Re(C)/nF	Im(C)/nF	|C|/nF	Phase(C)/deg	Re(M)	Im(M)	|M|	Phase(M)/deg	Re(Permittivity)	Im(Permittivity)	|Permittivity|	Phase(Permittivity)/deg	Re(Resistivity)/Ohm.cm	Im(Resistivity)/Ohm.cm	|Resistivity|/Ohm.cm	Phase(Resistivity)/deg	Re(Conductivity)/mS/cm	Im(Conductivity)/mS/cm	|Conductivity|/mS/cm	Phase(Conductivity)/deg	Tan(Delta)	Loss Angle(Delta)/deg	dq/mA.h
500019	31.6698	7.05902	32.4469	-12.5655	211.206	0.329192	-0.116346	0.0450909	0.00213418	1	10	0.010304	0.000317563	0	-0.000104547	0.0300814	0.00670498	0.0308196	12.5655	2.13418	9.57484	9.80981	-77.4345	0.0000000E+000	0.0000000E+000	0.0000000E+000	77.4345	0.0000000E+000	0.0000000E+000	0.0000000E+000	-77.4345	0.0000000E+000	0.0000000E+000	0.0000000E+000	-12.5655	0.0000000E+000	0.0000000E+000	0.0000000E+000	12.5655	4.48642	77.4345	-0.000104547
231063	14.0027	-3.22558	14.3694	12.972	212.05	0.329096	-0.0325557	-0.213542	-0.0107602	1	10	0.0105704	0.000735621	0	-0.000118778	0.0678163	-0.0156217	0.0695923	-12.972	-10.7602	46.7116	47.9349	-102.972	0.0000000E+000	0.0000000E+000	0.0000000E+000	102.972	0.0000000E+000	0.0000000E+000	0.0000000E+000	-102.972	0.0000000E+000	0.0000000E+000	0.0000000E+000	12.972	0.0000000E+000	0.0000000E+000	0.0000000E+000	-12.972	4.34115	77.028	-5.35078e-06
106786	11.2861	-0.921061	11.3236	4.66559	212.895	0.329121	-0.0178274	-1.61814	-0.0107059	1	10	0.0108194	0.000955476	0	-0.00012488	0.0880184	-0.00718321	0.088311	-4.66559	-10.7059	131.183	131.619	-94.6656	0.0000000E+000	0.0000000E+000	0.0000000E+000	94.6656	0.0000000E+000	0.0000000E+000	0.0000000E+000	-94.6656	0.0000000E+000	0.0000000E+000	0.0000000E+000	4.66559	0.0000000E+000	0.0000000E+000	0.0000000E+000	-4.66559	12.2534	85.3344	-3.02374e-06
49352.4	11.0273	-0.360692	11.0332	1.87342	213.739	0.329125	-0.0128863	-8.94079	-0.00955534	1	10	0.0105313	0.000954509	0	-0.000129932	0.0905871	-0.00296301	0.0906356	-1.87342	-9.55534	292.132	292.288	-91.8734	0.0000000E+000	0.0000000E+000	0.0000000E+000	91.8734	0.0000000E+000	0.0000000E+000	0.0000000E+000	-91.8734	0.0000000E+000	0.0000000E+000	0.0000000E+000	1.87342	0.0000000E+000	0.0000000E+000	0.0000000E+000	-1.87342	30.5726	88.1266	-1.43248e-06
22806.6	10.9656	-0.160569	10.9668	0.83892	214.583	0.329137	-0.00824381	-43.4608	-0.00931669	1	10	0.0103778	0.000946294	0	-0.000132458	0.0911744	-0.00133506	0.0911841	-0.83892	-9.3167	636.258	636.326	-90.8389	0.0000000E+000	0.0000000E+000	0.0000000E+000	90.8389	0.0000000E+000	0.0000000E+000	0.0000000E+000	-90.8389	0.0000000E+000	0.0000000E+000	0.0000000E+000	0.83892	0.0000000E+000	0.0000000E+000	0.0000000E+000	-0.83892	68.2922	89.1611	-1.77602e-06
10540.4	10.9468	-0.0781785	10.9471	0.409181	215.427	0.329133	-0.00888036	-193.142	-0.00985042	1	10	0.0101387	0.000926155	0	-0.000134229	0.0913462	-0.000652365	0.0913486	-0.409181	-9.85039	1379.29	1379.32	-90.4092	0.0000000E+000	0.0000000E+000	0.0000000E+000	90.4092	0.0000000E+000	0.0000000E+000	0.0000000E+000	-90.4092	0.0000000E+000	0.0000000E+000	0.0000000E+000	0.409181	0.0000000E+000	0.0000000E+000	0.0000000E+000	-0.409181	140.023	89.5908	-6.04379e-07
4871.56	10.9375	-0.0307385	10.9376	0.161022	216.472	0.329154	-0.0056211	-1062.84	-0.00839445	1	10	0.0100829	0.000921855	0	-0.000136859	0.0914276	-0.000256945	0.0914279	-0.161022	-8.39428	2986.96	2986.97	-90.161	0.0000000E+000	0.0000000E+000	0.0000000E+000	90.161	0.0000000E+000	0.0000000E+000	0.0000000E+000	-90.161	0.0000000E+000	0.0000000E+000	0.0000000E+000	0.161022	0.0000000E+000	0.0000000E+000	0.0000000E+000	-0.161022	355.825	89.839	-1.35941e-06
2250.72	10.9479	-0.0152455	10.9479	0.0797877	217.402	0.329145	-0.00467095	-4638.26	-0.0089946	1	10	0.0103358	0.000944091	0	-0.000137651	0.0913418	-0.000127199	0.0913419	-0.0797877	-8.99466	6459.04	6459.05	-90.0798	0.0000000E+000	0.0000000E+000	0.0000000E+000	90.0798	0.0000000E+000	0.0000000E+000	0.0000000E+000	-90.0798	0.0000000E+000	0.0000000E+000	0.0000000E+000	0.0797877	0.0000000E+000	0.0000000E+000	0.0000000E+000	-0.0797877	718.102	89.9202	-3.70782e-07
1040.33	10.9431	-0.00189352	10.9431	0.00991402	218.332	0.329141	-0.0058059	-80793.9	-0.00241898	1	10	0.010385	0.000948998	0	-0.000139622	0.0913814	-1.58119e-05	0.0913814	-0.00991402	-2.41814	13980	13980	-90.0099	0.0000000E+000	0.0000000E+000	0.0000000E+000	90.0099	0.0000000E+000	0.0000000E+000	0.0000000E+000	-90.0099	0.0000000E+000	0.0000000E+000	0.0000000E+000	0.00991402	0.0000000E+000	0.0000000E+000	0.0000000E+000	-0.00991402	5779.27	89.9901	-1.15233e-06
480.769	10.93	0.0174824	10.93	-0.0916441	219.262	0.329137	-0.00514136	18935.8	0.0484446	1	10	0.0103869	0.000950316	0	-0.000140809	0.0914914	0.00014634	0.0914915	0.0916441	48.4447	30287.5	30287.5	-89.9084	0.0000000E+000	0.0000000E+000	0.0000000E+000	89.9084	0.0000000E+000	0.0000000E+000	0.0000000E+000	-89.9084	0.0000000E+000	0.0000000E+000	0.0000000E+000	-0.0916441	0.0000000E+000	0.0000000E+000	0.0000000E+000	0.0916441	625.198	89.9084	-5.15294e-07
222.061	10.9416	0.0279371	10.9417	-0.146292	220.186	0.329134	-0.00343333	25654.7	0.167249	1	10	0.0103998	0.000950474	0	-0.000141557	0.0913935	0.000233354	0.0913938	0.146292	167.25	65503.3	65503.6	-89.8537	0.0000000E+000	0.0000000E+000	0.0000000E+000	89.8537	0.0000000E+000	0.0000000E+000	0.0000000E+000	-89.8537	0.0000000E+000	0.0000000E+000	0.0000000E+000	-0.146292	0.0000000E+000	0.0000000E+000	0.0000000E+000	0.146292	391.652	89.8537	2.2343e-07
102.667	10.9437	0.0518405	10.9438	-0.27141	221.123	0.32915	-0.00313466	29903.3	0.670998	1	10	0.0104009	0.000950394	0	-0.000143629	0.091375	0.000432846	0.091376	0.27141	670.994	141650	141651	-89.7286	0.0000000E+000	0.0000000E+000	0.0000000E+000	89.7286	0.0000000E+000	0.0000000E+000	0.0000000E+000	-89.7286	0.0000000E+000	0.0000000E+000	0.0000000E+000	-0.27141	0.0000000E+000	0.0000000E+000	0.0000000E+000	0.27141	211.103	89.7286	-1.15873e-06
47.4443	10.9454	0.101894	10.9459	-0.533371	222.034	0.32913	-0.00456642	32921.9	2.8529	1	10	0.0104122	0.000951249	0	-0.000145645	0.0913548	0.000850454	0.0913587	0.533371	2852.9	306455	306469	-89.4666	0.0000000E+000	0.0000000E+000	0.0000000E+000	89.4666	0.0000000E+000	0.0000000E+000	0.0000000E+000	-89.4666	0.0000000E+000	0.0000000E+000	0.0000000E+000	-0.533371	0.0000000E+000	0.0000000E+000	0.0000000E+000	0.533371	107.419	89.4666	-1.28209e-06
21.9144	10.9535	0.226621	10.9559	-1.18524	222.902	0.329118	-0.00229838	32047.2	13.7118	1	10	0.0104053	0.000949747	0	-0.000148946	0.0912556	0.00188801	0.0912751	1.18524	13711.8	662749	662891	-88.8148	0.0000000E+000	0.0000000E+000	0.0000000E+000	88.8148	0.0000000E+000	0.0000000E+000	0.0000000E+000	-88.8148	0.0000000E+000	0.0000000E+000	0.0000000E+000	-1.18524	0.0000000E+000	0.0000000E+000	0.0000000E+000	1.18524	48.3342	88.8148	-2.41003e-06
10.1329	10.9231	0.497188	10.9344	-2.60613	223.829	0.329141	-0.00952063	31591	65.3148	1	10	0.0104055	0.000951628	0	-0.000142359	0.0913595	0.00415841	0.0914541	2.60613	65314.8	1.43496e+06	1.43644e+06	-87.3939	0.0000000E+000	0.0000000E+000	0.0000000E+000	87.3939	0.0000000E+000	0.0000000E+000	0.0000000E+000	-87.3939	0.0000000E+000	0.0000000E+000	0.0000000E+000	-2.60613	0.0000000E+000	0.0000000E+000	0.0000000E+000	2.60613	21.9698	87.3939	6.11907e-06
4.68375	10.9318	1.09445	10.9865	-5.71717	224.879	0.329136	0.0112256	31047.7	308.109	1	11	0.0104146	0.000947945	0	-0.000146366	0.0905681	0.00906731	0.0910209	5.71717	308109	3.07752e+06	3.09291e+06	-84.2828	0.0000000E+000	0.0000000E+000	0.0000000E+000	84.2828	0.0000000E+000	0.0000000E+000	0.0000000E+000	-84.2828	0.0000000E+000	0.0000000E+000	0.0000000E+000	-5.71717	0.0000000E+000	0.0000000E+000	0.0000000E+000	5.71717	9.98843	84.2828	-5.46583e-06
2.16533	10.9457	2.47288	11.2216	-12.7307	226.595	0.329154	-0.00570915	29723	1443.42	1	11	0.010416	0.000928215	0	-0.000147979	0.0869234	0.019638	0.0891141	12.7307	1.44342e+06	6.38901e+06	6.55003e+06	-77.2693	0.0000000E+000	0.0000000E+000	0.0000000E+000	77.2693	0.0000000E+000	0.0000000E+000	0.0000000E+000	-77.2693	0.0000000E+000	0.0000000E+000	0.0000000E+000	-12.7307	0.0000000E+000	0.0000000E+000	0.0000000E+000	12.7307	4.42629	77.2693	9.11155e-06
1.00006	11.1713	5.22644	12.3335	-25.0722	230.205	0.329151	0.00304431	30450	5467.98	1	11	0.0104227	0.000845076	0	-0.000112273	0.0734403	0.0343585	0.0810801	25.0722	5.46798e+06	1.16876e+07	1.29035e+07	-64.9278	0.0000000E+000	0.0000000E+000	0.0000000E+000	64.9278	0.0000000E+000	0.0000000E+000	0.0000000E+000	-64.9278	0.0000000E+000	0.0000000E+000	0.0000000E+000	-25.0722	0.0000000E+000	0.0000000E+000	0.0000000E+000	25.0722	2.13747	64.9278	1.20036e-05