Folder: SI_for_publications/ACS_Catal_2026/Figures_Na_K/main_figures/data/EC/20240126_2-102_Add_Na (part 2)

File: 20240125_2-102_002_preconditioning_elctrode2_01_CVA_C02.mpt
EC-Lab ASCII FILE
Nb header lines : 66

Cyclic Voltammetry Advanced

Run on channel : 2 (SN 66414)
User :
CE vs. WE compliance from -10 V to 10 V
Electrode connection : standard
Potential control : Ewe
Ewe ctrl range : min = -1.00 V, max = 1.00 V
Safety Limits :
	Do not start on E overload
Acquisition started on : 01/26/2024 15:49:20.433
Loaded Setting File :  C:\Users\NakamuraT\Documents\EC-Lab\Data\Yatsuzuka\20240126_2-102_Add_Na\20240125_2-102_001_preconditioning_elctrode1.mps
Saved on :
	File : 20240125_2-102_002_preconditioning_elctrode2_01_CVA_C02.mpr
	Directory : C:\Users\NakamuraT\Documents\EC-Lab\Data\Yatsuzuka\20240126_2-102_Add_Na\
	Host : 192.109.209.100
Device : SP-150e (SN .003411)
Address : 192.109.209.236
EC-Lab for windows v11.50 (software)
Internet server v11.50 (firmware)
Command interpretor v11.50 (firmware)
Electrode material :
Initial state :
Electrolyte :
Comments :
Electrode surface area : 0.001 cm2
Characteristic mass : 0.001 g
Equivalent Weight : 0.000 g/eq.
Density : 0.000 g/cm3
Volume (V) : 0.001 cm3
Cycle Definition : Charge/Discharge alternance
Ei (V)              0.350
vs.                 Ref
ti (h:m:s)          0:00:10.0000
dti (s)             1.0000
dE/dt               10.000
dE/dt unit          mV/s
E1 (V)              0.450
vs.                 Ref
t1 (h:m:s)          0:00:0.0000
dt1 (s)             0.1000
Step percent        50
N                   10
E range min (V)     -1.000
E range max (V)     1.000
I Range             Auto
I Range min         Unset
I Range max         Unset
I Range init        Unset
Bandwidth           5
E2 (V)              0.350
vs.                 Ref
t2 (h:m:s)          0:00:0.0000
dt2 (s)             0.1000
nc cycles           9
nr                  1
Reverse Scan        0
Ef (V)              0.000
vs.                 Eoc
tf (h:m:s)          0:00:0.0000
dtf (s)             0.1000

mode	ox/red	error	control changes	Ns changes	counter inc.	time/s	control/V	Ewe/V	<I>/mA	cycle number	(Q-Qo)/C	I Range	Ns	step time/s	P/W
2	1	0	1	0	0	0.000000000000000E+000	0.349998	0.350103	8.0369	1	0.0000000E+000	10	0	0.000000000000000E+000	0.00281374
2	1	0	1	0	0	11.1775	0.361725	0.362056	0.266673	1	0.00613292	12	0	10.1775	9.65504e-05
2	1	0	1	0	0	12.8777	0.378727	0.379069	0.270358	1	0.0065852	12	0	11.8777	0.000102484
2	1	0	1	0	0	14.5779	0.395729	0.396139	0.2683	1	0.00703936	12	0	13.5779	0.000106284
2	1	0	1	0	0	16.2783	0.412731	0.413052	0.264528	1	0.00749191	12	0	15.2783	0.000109264
2	1	0	1	0	0	17.9785	0.429733	0.430074	0.261489	1	0.0079421	12	0	16.9785	0.000112459
2	1	0	1	0	0	19.6787	0.446736	0.44709	0.261973	1	0.00839258	12	0	18.6787	0.000117125
2	0	0	1	0	0	21.3153	0.436884	0.437214	-0.0522712	1	0.00849896	13	0	0.7002	-2.28537e-05
2	0	0	1	0	0	23.0155	0.419882	0.420157	-0.0949794	1	0.00837452	13	0	2.4004	-3.99062e-05
2	0	0	1	0	0	24.7457	0.40258	0.402888	-0.119149	1	0.00818935	12	0	4.1306	-4.80035e-05
2	0	0	1	0	0	26.4459	0.385578	0.385922	-0.142154	1	0.00796922	12	0	5.8308	-5.48603e-05
2	0	0	1	0	0	28.1461	0.368576	0.368785	-0.161769	1	0.00771621	12	0	7.531	-5.96581e-05
2	0	0	1	0	0	29.8463	0.351573	0.351854	-0.179551	1	0.00743133	12	0	9.2312	-6.31757e-05
2	1	0	1	0	1	31.4791	0.364775	0.365032	0.190904	2	0.0075989	12	0	1.25	6.96858e-05
2	1	0	1	0	1	33.1795	0.381777	0.382055	0.19204	2	0.0079269	12	0	2.9504	7.33697e-05
2	1	0	1	0	1	34.8797	0.398779	0.3991	0.189554	2	0.00824778	12	0	4.6506	7.56512e-05
2	1	0	1	0	1	36.5799	0.415782	0.416137	0.187206	2	0.00856236	12	0	6.3508	7.79035e-05
2	1	0	1	0	1	38.2801	0.432784	0.433202	0.187174	2	0.00887635	12	0	8.051	8.1084e-05
2	1	0	1	0	1	39.9778	0.449761	0.450126	0.193708	2	0.00919872	12	0	9.7487	8.7193e-05
2	0	0	1	0	1	41.6269	0.433734	0.434115	-0.0939917	2	0.00912307	13	0	1.3452	-4.08032e-05
2	0	0	1	0	1	43.3421	0.416582	0.416883	-0.114773	2	0.00893861	12	0	3.0604	-4.7847e-05
2	0	0	1	0	1	45.0423	0.39958	0.399892	-0.133383	2	0.00872233	12	0	4.7606	-5.33388e-05
2	0	0	1	0	1	46.7425	0.382577	0.382862	-0.152453	2	0.00847894	12	0	6.4608	-5.83684e-05
2	0	0	1	0	1	48.4427	0.365575	0.365847	-0.171143	2	0.00820905	12	0	8.161	-6.2612e-05
2	0	0	1	0	0	50.0757	0.350773	0.351034	-0.0811775	3	0.0079282	12	0	9.794	-2.8496e-05
2	1	0	1	0	0	51.7759	0.367775	0.367969	0.181758	3	0.00817494	12	0	1.5502	6.68812e-05
2	1	0	1	0	0	53.4761	0.384778	0.385064	0.181683	3	0.00848235	12	0	3.2504	6.99594e-05
2	1	0	1	0	0	55.1763	0.40178	0.402067	0.175926	3	0.00877987	12	0	4.9506	7.0734e-05
2	1	0	1	0	0	56.8765	0.418782	0.419069	0.170266	3	0.00906968	12	0	6.6508	7.1353e-05
2	1	0	1	0	0	58.5767	0.435784	0.436074	0.167384	3	0.00935703	12	0	8.351	7.29917e-05
2	1	0	1	0	0	60.1783	0.448186	0.448506	0.010183	3	0.00961443	12	0	9.9526	4.56713e-06
2	0	0	1	0	0	61.9385	0.430584	0.43095	-0.105187	3	0.0094655	12	0	1.7102	-4.53302e-05
2	0	0	1	0	0	63.6387	0.413581	0.413919	-0.125952	3	0.00926468	12	0	3.4104	-5.21339e-05
2	0	0	1	0	0	65.3389	0.396579	0.396869	-0.143564	3	0.00903677	12	0	5.1106	-5.69761e-05
2	0	0	1	0	0	67.0393	0.379577	0.37984	-0.159502	3	0.0087848	12	0	6.811	-6.05851e-05
2	0	0	1	0	0	68.7395	0.362575	0.362931	-0.173543	3	0.00850771	12	0	8.5112	-6.29841e-05
2	1	0	1	0	1	70.3723	0.353774	0.354099	0.103894	4	0.00828622	12	0	0.15	3.67887e-05
2	1	0	1	0	1	72.0725	0.370776	0.371085	0.180106	4	0.00856906	12	0	1.8502	6.68346e-05
2	1	0	1	0	1	73.7727	0.387778	0.388127	0.173968	4	0.00886508	12	0	3.5504	6.75215e-05
2	1	0	1	0	1	75.4729	0.40478	0.405105	0.164207	4	0.00915057	12	0	5.2506	6.65212e-05
2	1	0	1	0	1	77.1731	0.421782	0.422038	0.157395	4	0.0094279	12	0	6.9508	6.64266e-05
2	1	0	1	0	1	78.8733	0.438785	0.439111	0.158308	4	0.00970222	12	0	8.651	6.95147e-05
2	0	0	1	0	1	80.5049	0.444885	0.445167	-0.0768894	4	0.00988067	13	0	0.28	-3.42287e-05
2	0	0	1	0	1	82.2351	0.427583	0.427854	-0.118068	4	0.00970331	12	0	2.0102	-5.05157e-05
2	0	0	1	0	1	83.9355	0.410581	0.410874	-0.135114	4	0.00949305	12	0	3.7106	-5.5515e-05
2	0	0	1	0	1	85.6357	0.393579	0.3939	-0.145912	4	0.00925866	12	0	5.4108	-5.74748e-05
2	0	0	1	0	1	87.3359	0.376577	0.376836	-0.155596	4	0.00900133	12	0	7.111	-5.86341e-05
2	0	0	1	0	1	89.0361	0.359574	0.359903	-0.169261	4	0.00871939	12	0	8.8112	-6.09177e-05
2	1	0	1	0	0	90.6689	0.356774	0.357067	0.15354	5	0.00858955	12	0	0.45	5.48241e-05
2	1	0	1	0	0	92.3691	0.373776	0.374229	0.170088	5	0.00887976	12	0	2.1502	6.36518e-05
2	1	0	1	0	0	94.0693	0.390778	0.391119	0.162098	5	0.00916803	12	0	3.8504	6.33997e-05
2	1	0	1	0	0	95.7695	0.407781	0.40814	0.15872	5	0.00944516	12	0	5.5506	6.47799e-05
2	1	0	1	0	0	97.4697	0.424783	0.425033	0.159236	5	0.009714	12	0	7.2508	6.76805e-05
2	1	0	1	0	0	99.1699	0.441785	0.442119	0.160129	5	0.00997979	12	0	8.951	7.0796e-05
2	0	0	1	0	0	100.772	0.442185	0.442527	-0.0936304	5	0.010078	12	0	0.5501	-4.1434e-05
2	0	0	1	0	0	102.472	0.425183	0.425443	-0.115315	5	0.00989166	12	0	2.2504	-4.90598e-05
2	0	0	1	0	0	104.172	0.408181	0.408459	-0.131118	5	0.00967544	12	0	3.9506	-5.35563e-05
2	0	0	1	0	0	105.872	0.391178	0.391407	-0.148304	5	0.00943681	12	0	5.6508	-5.80474e-05
2	0	0	1	0	0	107.572	0.374176	0.374455	-0.163693	5	0.0091761	12	0	7.351	-6.12956e-05
2	0	0	1	0	0	109.273	0.357174	0.357473	-0.175908	5	0.00889108	12	0	9.0512	-6.28825e-05
2	1	0	1	0	1	110.915	0.359274	0.359546	0.168287	6	0.00884266	12	0	0.7	6.0507e-05
2	1	0	1	0	1	112.616	0.376277	0.376578	0.171676	6	0.009132	12	0	2.4002	6.46495e-05
[...]
2	1	0	1	0	0	139.663	0.446786	0.447069	0.149698	7	0.0104089	12	0	9.4512	6.69251e-05
2	0	0	1	0	0	141.265	0.437184	0.43752	-0.105398	7	0.0103698	12	0	1.1002	-4.61137e-05
2	0	0	1	0	0	142.965	0.420182	0.420424	-0.121846	7	0.0101694	12	0	2.8004	-5.12269e-05
2	0	0	1	0	0	144.665	0.40318	0.403499	-0.134693	7	0.00994512	12	0	4.5006	-5.43484e-05
2	0	0	1	0	0	146.365	0.386178	0.386488	-0.148426	7	0.00970015	12	0	6.2008	-5.73649e-05
2	0	0	1	0	0	148.066	0.369176	0.369478	-0.164146	7	0.00943329	12	0	7.901	-6.06483e-05
2	0	0	1	0	0	149.766	0.352173	0.352455	-0.182023	7	0.00914184	12	0	9.6012	-6.41551e-05
2	1	0	1	0	1	151.409	0.364275	0.36463	0.164415	8	0.00926449	12	0	1.2	5.99506e-05
2	1	0	1	0	1	153.109	0.381277	0.381593	0.162757	8	0.00954813	12	0	2.9004	6.21069e-05
2	1	0	1	0	1	154.809	0.398279	0.398599	0.158944	8	0.00982086	12	0	4.6006	6.3355e-05
2	1	0	1	0	1	156.509	0.415282	0.415564	0.155087	8	0.0100826	12	0	6.3008	6.44487e-05
2	1	0	1	0	1	158.21	0.432284	0.43258	0.150427	8	0.0103367	12	0	8.001	6.50718e-05
2	1	0	1	0	1	159.91	0.449286	0.449587	0.14833	8	0.010589	12	0	9.7012	6.66872e-05
2	0	0	1	0	1	161.511	0.434684	0.43495	-0.10901	8	0.0104824	12	0	1.3502	-4.74141e-05
2	0	0	1	0	1	163.212	0.417682	0.417962	-0.125028	8	0.0102772	12	0	3.0504	-5.22569e-05
2	0	0	1	0	1	164.912	0.40068	0.400963	-0.141138	8	0.0100499	12	0	4.7506	-5.65912e-05
2	0	0	1	0	1	166.612	0.383678	0.383953	-0.155967	8	0.0098023	12	0	6.4508	-5.98841e-05
2	0	0	1	0	1	168.312	0.366675	0.367003	-0.16743	8	0.00953281	12	0	8.151	-6.14471e-05
2	0	0	0	0	0	169.978	0.349998	0.35058	-0.190315	8	0.00924467	12	0	9.8167	-6.67207e-05
2	1	0	1	0	0	171.655	0.366775	0.367113	0.169758	9	0.00944712	12	0	1.4502	6.23203e-05
2	1	0	1	0	0	173.356	0.383778	0.384095	0.162075	9	0.00972758	12	0	3.1504	6.22521e-05
2	1	0	1	0	0	175.056	0.40078	0.401133	0.153463	9	0.00999648	12	0	4.8506	6.15591e-05
2	1	0	1	0	0	176.756	0.417782	0.418136	0.147313	9	0.0102546	12	0	6.5508	6.1597e-05
2	1	0	1	0	0	178.456	0.434784	0.435156	0.144629	9	0.0105056	12	0	8.251	6.29362e-05
2	1	0	1	0	0	180.058	0.449186	0.449439	0.0497407	9	0.0107357	12	0	9.8526	2.23554e-05
2	0	0	1	0	0	181.758	0.432184	0.432482	-0.114804	9	0.0105814	12	0	1.6002	-4.96504e-05
2	0	0	1	0	0	183.458	0.415182	0.415483	-0.12912	9	0.0103723	12	0	3.3004	-5.36471e-05
2	0	0	1	0	0	185.158	0.398179	0.398513	-0.141291	9	0.010142	12	0	5.0006	-5.63065e-05
2	0	0	1	0	0	186.859	0.381177	0.381412	-0.15398	9	0.00989157	12	0	6.7008	-5.87299e-05
2	0	0	1	0	0	188.559	0.364175	0.364531	-0.168047	9	0.00961905	12	0	8.4012	-6.12585e-05
2	1	0	1	0	1	190.202	0.352273	0.352483	0.0434734	10	0.00936261	12	0	0.000000000000000E+000	1.53237e-05
2	1	0	1	0	1	191.902	0.369276	0.369529	0.168787	10	0.00961616	12	0	1.7002	6.23718e-05
2	1	0	1	0	1	193.602	0.386278	0.386602	0.162941	10	0.0098934	12	0	3.4004	6.29933e-05
2	1	0	1	0	1	195.302	0.40328	0.403587	0.156923	10	0.0101587	12	0	5.1006	6.33319e-05
2	1	0	1	0	1	197.003	0.420282	0.42054	0.151223	10	0.0104135	12	0	6.8008	6.35953e-05
2	1	0	1	0	1	198.703	0.437284	0.437581	0.146599	10	0.0106616	12	0	8.501	6.41491e-05
2	0	0	1	0	1	200.304	0.446686	0.446971	-0.063117	10	0.0108472	12	0	0.15	-2.82115e-05
2	0	0	1	0	1	202.005	0.429683	0.429964	-0.114529	10	0.0106683	12	0	1.8502	-4.92434e-05
2	0	0	1	0	1	203.705	0.412681	0.412981	-0.128797	10	0.0104557	12	0	3.5504	-5.31909e-05
2	0	0	1	0	1	205.405	0.395679	0.396	-0.143747	10	0.0102228	12	0	5.2508	-5.69239e-05
2	0	0	1	0	1	207.105	0.378677	0.379034	-0.15935	10	0.00996997	12	0	6.951	-6.03991e-05
2	0	0	1	0	1	208.806	0.361675	0.361971	-0.171693	10	0.00969484	12	0	8.6512	-6.2148e-05
2	0	0	1	0	1	209.971	0.349998	0.350389	-0.188561	10	0.00949153	12	0	9.8163	-6.60698e-05

File: 20240125_2-102_002_preconditioning_elctrode2_02_PEIS_C02.mpt
EC-Lab ASCII FILE
Nb header lines : 63

Potentio Electrochemical Impedance Spectroscopy

Run on channel : 2 (SN 66414)
User :
CE vs. WE compliance from -10 V to 10 V
Electrode connection : standard
Potential control : Ewe
Ewe ctrl range : min = -1.00 V, max = 1.00 V
Safety Limits :
	Do not start on E overload
Acquisition started on : 01/26/2024 15:49:20.433
Loaded Setting File :  C:\Users\NakamuraT\Documents\EC-Lab\Data\Yatsuzuka\20240126_2-102_Add_Na\20240125_2-102_001_preconditioning_elctrode1.mps
Saved on :
	File : 20240125_2-102_002_preconditioning_elctrode2_02_PEIS_C02.mpr
	Directory : C:\Users\NakamuraT\Documents\EC-Lab\Data\Yatsuzuka\20240126_2-102_Add_Na\
	Host : 192.109.209.100
Device : SP-150e (SN .003411)
Address : 192.109.209.236
EC-Lab for windows v11.50 (software)
Internet server v11.50 (firmware)
Command interpretor v11.50 (firmware)
Electrode material :
Initial state :
Electrolyte :
Comments :
Electrode surface area : 0.001 cm2
Characteristic mass : 0.001 g
Equivalent Weight : 0.000 g/eq.
Density : 0.000 g/cm3
Volume (V) : 0.001 cm3
Cycle Definition : Charge/Discharge alternance
Mode                Single sine
E (V)               0.4000
vs.                 Eoc
tE (h:m:s)          0:00:0.0000
record              0
dI                  0.000
unit dI             mA
dt (s)              0.000
fi                  500.000
unit fi             kHz
ff                  1.000
unit ff             Hz
Nd                  6
Points              per decade
spacing             Logarithmic
Va (mV)             10.0
pw                  0.10
Na                  2
corr                0
E range min (V)     -1.000
E range max (V)     1.000
I Range             Auto
Bandwidth           5
nc cycles           0
goto Ns'            0
nr cycles           0
inc. cycle          0

freq/Hz	Re(Z)/Ohm	-Im(Z)/Ohm	|Z|/Ohm	Phase(Z)/deg	time/s	<Ewe>/V	<I>/mA	Cs/uF	Cp/uF	cycle number	I Range	|Ewe|/V	|I|/A	Ns	(Q-Qo)/mA.h	Re(Y)/Ohm-1	Im(Y)/Ohm-1	|Y|/Ohm-1	Phase(Y)/deg	Re(C)/nF	Im(C)/nF	|C|/nF	Phase(C)/deg	Re(M)	Im(M)	|M|	Phase(M)/deg	Re(Permittivity)	Im(Permittivity)	|Permittivity|	Phase(Permittivity)/deg	Re(Resistivity)/Ohm.cm	Im(Resistivity)/Ohm.cm	|Resistivity|/Ohm.cm	Phase(Resistivity)/deg	Re(Conductivity)/mS/cm	Im(Conductivity)/mS/cm	|Conductivity|/mS/cm	Phase(Conductivity)/deg	Tan(Delta)	Loss Angle(Delta)/deg	dq/mA.h
500019	32.2708	6.22787	32.8663	-10.9231	211.546	0.34323	-0.0153448	0.0511086	0.00183515	1	10	0.0102627	0.000312255	0	-2.04963e-05	0.029875	0.00576551	0.0304263	10.9231	1.83515	9.50917	9.68463	-79.0769	0.0000000E+000	0.0000000E+000	0.0000000E+000	79.0769	0.0000000E+000	0.0000000E+000	0.0000000E+000	-79.0769	0.0000000E+000	0.0000000E+000	0.0000000E+000	-10.9231	0.0000000E+000	0.0000000E+000	0.0000000E+000	10.9231	5.18168	79.0769	-2.04963e-05
231063	13.8732	-2.92536	14.1783	11.9072	212.39	0.343146	-0.00968118	-0.235457	-0.0100236	1	10	0.0105449	0.000743737	0	-2.17826e-05	0.0690129	-0.0145523	0.0705305	-11.9072	-10.0236	47.5358	48.5811	-101.907	0.0000000E+000	0.0000000E+000	0.0000000E+000	101.907	0.0000000E+000	0.0000000E+000	0.0000000E+000	-101.907	0.0000000E+000	0.0000000E+000	0.0000000E+000	11.9072	0.0000000E+000	0.0000000E+000	0.0000000E+000	-11.9072	4.74239	78.0928	2.88916e-07
106786	11.542	-0.628825	11.5592	3.11846	213.234	0.343166	-0.00681019	-2.37015	-0.00701425	1	10	0.0108038	0.000934653	0	-2.34364e-05	0.0863833	-0.00470627	0.0865114	-3.11846	-7.01425	128.746	128.937	-93.1185	0.0000000E+000	0.0000000E+000	0.0000000E+000	93.1185	0.0000000E+000	0.0000000E+000	0.0000000E+000	-93.1185	0.0000000E+000	0.0000000E+000	0.0000000E+000	3.11846	0.0000000E+000	0.0000000E+000	0.0000000E+000	-3.11846	18.355	86.8815	1.51731e-06
49352.4	11.4545	-0.158178	11.4556	0.791163	214.079	0.343182	-0.00638645	-20.3875	-0.00388708	1	10	0.0105053	0.000917046	0	-2.51479e-05	0.0872852	-0.00120535	0.0872936	-0.791163	-3.88707	281.484	281.51	-90.7912	0.0000000E+000	0.0000000E+000	0.0000000E+000	90.7912	0.0000000E+000	0.0000000E+000	0.0000000E+000	-90.7912	0.0000000E+000	0.0000000E+000	0.0000000E+000	0.791163	0.0000000E+000	0.0000000E+000	0.0000000E+000	-0.791163	72.4151	89.2088	-8.72117e-07
22806.6	11.459	-0.0527958	11.4591	0.263982	214.923	0.343173	-0.0056323	-132.178	-0.00280582	1	10	0.0103005	0.000898898	0	-2.67978e-05	0.0872661	-0.000402068	0.087267	-0.263982	-2.80585	608.984	608.99	-90.264	0.0000000E+000	0.0000000E+000	0.0000000E+000	90.264	0.0000000E+000	0.0000000E+000	0.0000000E+000	-90.264	0.0000000E+000	0.0000000E+000	0.0000000E+000	0.263982	0.0000000E+000	0.0000000E+000	0.0000000E+000	-0.263982	217.043	89.736	-1.15936e-07
10540.4	11.4632	-0.0105263	11.4632	0.0526129	215.767	0.343179	-0.00448988	-1434.46	-0.00120956	1	10	0.0101496	0.000885406	0	-2.8275e-05	0.0872359	-8.0106e-05	0.0872359	-0.0526129	-1.20955	1317.22	1317.22	-90.0526	0.0000000E+000	0.0000000E+000	0.0000000E+000	90.0526	0.0000000E+000	0.0000000E+000	0.0000000E+000	-90.0526	0.0000000E+000	0.0000000E+000	0.0000000E+000	0.0526129	0.0000000E+000	0.0000000E+000	0.0000000E+000	-0.0526129	1089.01	89.9474	-4.49669e-07
4871.56	11.4728	0.00145485	11.4728	-0.00726561	216.813	0.343197	-0.00253732	22456.1	0.000361105	1	10	0.0101764	0.000887004	0	-2.91575e-05	0.0871629	1.1053e-05	0.0871629	0.00726561	0.360984	2847.63	2847.63	-89.9927	0.0000000E+000	0.0000000E+000	0.0000000E+000	89.9927	0.0000000E+000	0.0000000E+000	0.0000000E+000	-89.9927	0.0000000E+000	0.0000000E+000	0.0000000E+000	-0.00726561	0.0000000E+000	0.0000000E+000	0.0000000E+000	0.00726561	7885.88	89.9927	4.35457e-07
2250.72	11.4628	0.00589087	11.4628	-0.0294449	217.744	0.343201	-0.00282105	12003.8	0.00317026	1	10	0.0104272	0.00090965	0	-3.02634e-05	0.0872385	4.48329e-05	0.0872385	0.0294449	3.16993	6168.89	6168.89	-89.9706	0.0000000E+000	0.0000000E+000	0.0000000E+000	89.9706	0.0000000E+000	0.0000000E+000	0.0000000E+000	-89.9706	0.0000000E+000	0.0000000E+000	0.0000000E+000	-0.0294449	0.0000000E+000	0.0000000E+000	0.0000000E+000	0.0294449	1945.86	89.9706	-1.10072e-06
1040.33	11.4535	0.0353877	11.4536	-0.177025	218.674	0.343195	-0.00226104	4323.1	0.0412685	1	10	0.010482	0.000915173	0	-3.09846e-05	0.0873086	0.000269756	0.087309	0.177025	41.2684	13356.9	13356.9	-89.823	0.0000000E+000	0.0000000E+000	0.0000000E+000	89.823	0.0000000E+000	0.0000000E+000	0.0000000E+000	-89.823	0.0000000E+000	0.0000000E+000	0.0000000E+000	-0.177025	0.0000000E+000	0.0000000E+000	0.0000000E+000	0.177025	323.658	89.823	3.72748e-07
480.769	11.4541	0.0288704	11.4541	-0.144416	219.604	0.343196	-0.00252052	11466.5	0.0728475	1	10	0.010483	0.000915218	0	-3.27495e-05	0.0873048	0.000220055	0.0873051	0.144416	72.848	28901.6	28901.7	-89.8556	0.0000000E+000	0.0000000E+000	0.0000000E+000	89.8556	0.0000000E+000	0.0000000E+000	0.0000000E+000	-89.8556	0.0000000E+000	0.0000000E+000	0.0000000E+000	-0.144416	0.0000000E+000	0.0000000E+000	0.0000000E+000	0.144416	396.741	89.8556	-8.43966e-07
222.061	11.4887	0.0964094	11.4891	-0.480797	220.528	0.343193	-0.00256905	7434.11	0.523477	1	10	0.0105122	0.00091497	0	-3.33664e-05	0.0870362	0.000730381	0.0870392	0.480797	523.477	62380.4	62382.6	-89.5192	0.0000000E+000	0.0000000E+000	0.0000000E+000	89.5192	0.0000000E+000	0.0000000E+000	0.0000000E+000	-89.5192	0.0000000E+000	0.0000000E+000	0.0000000E+000	-0.480797	0.0000000E+000	0.0000000E+000	0.0000000E+000	0.480797	119.165	89.5192	1.31537e-07
102.667	11.5155	0.183995	11.517	-0.915397	221.465	0.343193	-0.000924488	8425.21	2.15039	1	10	0.0105103	0.000912595	0	-3.34156e-05	0.0868173	0.00138717	0.0868283	0.915397	2150.39	134584	134601	-89.0846	0.0000000E+000	0.0000000E+000	0.0000000E+000	89.0846	0.0000000E+000	0.0000000E+000	0.0000000E+000	-89.0846	0.0000000E+000	0.0000000E+000	0.0000000E+000	-0.915397	0.0000000E+000	0.0000000E+000	0.0000000E+000	0.915397	62.5858	89.0846	3.4679e-07
47.4443	11.5812	0.330777	11.5859	-1.63601	222.377	0.343188	-0.0033512	10141.5	8.2663	1	10	0.0105173	0.000907767	0	-3.27606e-05	0.0862766	0.0024642	0.0863118	1.63601	8266.32	289420	289538	-88.364	0.0000000E+000	0.0000000E+000	0.0000000E+000	88.364	0.0000000E+000	0.0000000E+000	0.0000000E+000	-88.364	0.0000000E+000	0.0000000E+000	0.0000000E+000	-1.63601	0.0000000E+000	0.0000000E+000	0.0000000E+000	1.63601	35.012	88.364	4.35329e-07
21.9144	11.6316	0.598173	11.647	-2.94392	223.245	0.343175	-0.00462428	12141.2	32.0249	1	10	0.0105151	0.000902817	0	-3.24133e-05	0.0857457	0.00440959	0.085859	2.94392	32024.9	622733	623556	-87.0561	0.0000000E+000	0.0000000E+000	0.0000000E+000	87.0561	0.0000000E+000	0.0000000E+000	0.0000000E+000	-87.0561	0.0000000E+000	0.0000000E+000	0.0000000E+000	-2.94392	0.0000000E+000	0.0000000E+000	0.0000000E+000	2.94392	19.4453	87.0561	1.51702e-06
10.1329	11.7341	1.15907	11.7912	-5.64129	224.174	0.343187	-0.000420479	13551.1	130.943	1	10	0.0105293	0.000892978	0	-3.25973e-05	0.0843984	0.00833675	0.0848091	5.64129	130943	1.32562e+06	1.33207e+06	-84.3587	0.0000000E+000	0.0000000E+000	0.0000000E+000	84.3587	0.0000000E+000	0.0000000E+000	0.0000000E+000	-84.3587	0.0000000E+000	0.0000000E+000	0.0000000E+000	-5.64129	0.0000000E+000	0.0000000E+000	0.0000000E+000	5.64129	10.1237	84.3587	-1.20958e-06
4.68375	11.9043	2.29328	12.1232	-10.904	225.224	0.343191	-0.000571499	14817.3	530.208	1	11	0.010524	0.000868087	0	-2.1561e-05	0.080997	0.0156034	0.0824863	10.904	530208	2.7523e+06	2.8029e+06	-79.096	0.0000000E+000	0.0000000E+000	0.0000000E+000	79.096	0.0000000E+000	0.0000000E+000	0.0000000E+000	-79.096	0.0000000E+000	0.0000000E+000	0.0000000E+000	-10.904	0.0000000E+000	0.0000000E+000	0.0000000E+000	10.904	5.19097	79.096	1.03506e-05
2.16533	12.2574	4.53793	13.0704	-20.3156	226.937	0.3432	-8.1858e-05	16197.2	1952.43	1	11	0.0105352	0.000806035	0	-4.30095e-05	0.0717495	0.0265631	0.0765087	20.3156	1.95243e+06	5.2737e+06	5.62351e+06	-69.6844	0.0000000E+000	0.0000000E+000	0.0000000E+000	69.6844	0.0000000E+000	0.0000000E+000	0.0000000E+000	-69.6844	0.0000000E+000	0.0000000E+000	0.0000000E+000	-20.3156	0.0000000E+000	0.0000000E+000	0.0000000E+000	20.3156	2.70109	69.6844	-1.41028e-05
1.00006	12.5514	9.32013	15.6334	-36.5959	230.547	0.343199	0.00119924	17075.4	6068.87	1	11	0.0105384	0.000674097	0	-1.5332e-05	0.0513554	0.0381343	0.0639656	36.5959	6.06887e+06	8.17295e+06	1.01798e+07	-53.4041	0.0000000E+000	0.0000000E+000	0.0000000E+000	53.4041	0.0000000E+000	0.0000000E+000	0.0000000E+000	-53.4041	0.0000000E+000	0.0000000E+000	0.0000000E+000	-36.5959	0.0000000E+000	0.0000000E+000	0.0000000E+000	36.5959	1.3467	53.4041	2.48698e-05