Folder: SI_for_publications/ACS_Catal_2026/Figures_Na_K/main_figures/data/EC/20240126_2-102_Add_Na (part 7)

File: 20240125_2-102_009_K_elctrode3_C01.mpt
EC-Lab ASCII FILE
Nb header lines : 66

Cyclic Voltammetry Advanced

Run on channel : 1 (SN 66412)
User :
CE vs. WE compliance from -10 V to 10 V
Electrode connection : standard
Potential control : Ewe
Ewe ctrl range : min = -1.00 V, max = 1.00 V
Safety Limits :
	Do not start on E overload
Acquisition started on : 01/26/2024 17:13:31.025
Loaded Setting File :  C:\Users\NakamuraT\Documents\EC-Lab\Data\Yatsuzuka\20240126_2-102_Add_Na\20240125_2-102_003_K_elctrode1.mps
Saved on :
	File : 20240125_2-102_009_K_elctrode3_C01.mpr
	Directory : C:\Users\NakamuraT\Documents\EC-Lab\Data\Yatsuzuka\20240126_2-102_Add_Na\
	Host : 192.109.209.100
Device : SP-150e (SN .003411)
Address : 192.109.209.236
EC-Lab for windows v11.50 (software)
Internet server v11.50 (firmware)
Command interpretor v11.50 (firmware)
Electrode material :
Initial state :
Electrolyte :
Comments :
Electrode surface area : 0.001 cm2
Characteristic mass : 0.001 g
Equivalent Weight : 0.000 g/eq.
Density : 0.000 g/cm3
Volume (V) : 0.001 cm3
Cycle Definition : Charge/Discharge alternance
Ei (V)              0.450
vs.                 Ref
ti (h:m:s)          0:00:10.0000
dti (s)             0.0000
dE/dt               5.000
dE/dt unit          mV/s
E1 (V)              0.700
vs.                 Ref
t1 (h:m:s)          0:00:0.0000
dt1 (s)             0.1000
Step percent        50
N                   10
E range min (V)     -1.000
E range max (V)     1.000
I Range             10 mA
I Range min         Unset
I Range max         Unset
I Range init        Unset
Bandwidth           5
E2 (V)              0.450
vs.                 Ref
t2 (h:m:s)          0:00:0.0000
dt2 (s)             0.1000
nc cycles           14
nr                  1
Reverse Scan        0
Ef (V)              0.000
vs.                 Eoc
tf (h:m:s)          0:00:0.0000
dtf (s)             0.1000

mode	ox/red	error	control changes	Ns changes	counter inc.	time/s	control/V	Ewe/V	<I>/mA	cycle number	(Q-Qo)/C	I Range	Ns	step time/s	P/W
2	1	0	0	0	0	0.000000000000000E+000	0.44994	0.450333	0.0094777	1	0.0000000E+000	11	0	0.000000000000000E+000	4.26812e-06
2	1	0	1	0	0	12.4572	0.512226	0.512562	0.125102	1	0.00122675	11	0	12.4022	6.41228e-05
2	1	0	0	0	0	24.9594	0.574737	0.575003	0.407952	1	0.00397692	11	0	24.9044	0.000234574
2	1	0	1	0	0	37.4616	0.637249	0.63756	1.95491	1	0.0168957	11	0	37.4066	0.00124638
2	1	0	0	0	0	49.9588	0.699735	0.699993	4.90913	1	0.0588828	11	0	49.9038	0.00343635
2	1	0	1	0	0	62.274	0.638649	0.638885	1.76091	1	0.0987069	11	0	62.219	0.00112502
2	1	0	0	0	0	74.7762	0.576138	0.576458	0.19712	1	0.108904	11	0	74.7212	0.000113632
2	0	0	1	0	0	87.2784	0.513627	0.513913	-0.0485312	1	0.109243	11	0	5.801	-2.49408e-05
2	0	0	0	0	0	99.7806	0.451115	0.451419	-0.0782004	1	0.108415	11	0	18.3032	-3.53012e-05
2	1	0	0	0	1	112.156	0.510776	0.511097	0.0783702	2	0.109247	11	0	11.902	4.00548e-05
2	1	0	1	0	1	124.658	0.573287	0.573591	0.270701	2	0.110943	11	0	24.4042	0.000155271
2	1	0	1	0	1	137.161	0.635798	0.63608	1.68754	2	0.121228	11	0	36.9066	0.00107341
2	1	0	0	0	1	149.663	0.698309	0.698617	4.61019	2	0.159614	11	0	49.4088	0.00322076
2	1	0	1	0	1	161.963	0.640149	0.640375	1.7068	2	0.198204	11	0	61.709	0.00109299
2	1	0	0	0	1	174.465	0.577638	0.577984	0.187998	2	0.208052	11	0	74.2112	0.00010866
2	0	0	1	0	1	186.967	0.515127	0.515422	-0.0491271	2	0.208342	11	0	6.001	-2.53212e-05
2	0	0	0	0	1	199.47	0.452616	0.452892	-0.0760735	2	0.207513	11	0	18.5032	-3.44531e-05
2	1	0	0	0	0	211.845	0.509276	0.509587	0.0751856	3	0.208265	11	0	11.602	3.83136e-05
2	1	0	1	0	0	224.347	0.571787	0.572049	0.238334	3	0.20979	11	0	24.1042	0.000136339
2	1	0	0	0	0	236.849	0.634298	0.634611	1.55937	3	0.21908	11	0	36.6064	0.000989591
2	1	0	1	0	0	249.352	0.696809	0.697102	4.44389	3	0.255556	11	0	49.1086	0.00309785
2	1	0	0	0	0	261.652	0.641649	0.641959	1.70078	3	0.294058	11	0	61.4088	0.00109183
2	1	0	1	0	0	274.154	0.579138	0.579458	0.186276	3	0.303876	11	0	73.9111	0.000107939
2	0	0	1	0	0	286.656	0.516627	0.516928	-0.0498614	3	0.304165	11	0	6.0012	-2.57748e-05
2	0	0	0	0	0	299.159	0.454116	0.454408	-0.075558	3	0.303342	11	0	18.5034	-3.43342e-05
2	1	0	0	0	1	311.534	0.507776	0.508133	0.0719951	4	0.304033	11	0	11.302	3.65831e-05
2	1	0	1	0	1	324.036	0.570287	0.570617	0.214517	4	0.305448	11	0	23.8042	0.000122407
2	1	0	0	0	1	336.538	0.632798	0.633083	1.45702	4	0.313983	11	0	36.3064	0.000922416
2	1	0	1	0	1	349.041	0.695309	0.695643	4.29704	4	0.348853	11	0	48.8086	0.0029892
2	1	0	0	0	1	361.341	0.64315	0.643426	1.70739	4	0.387421	11	0	61.1088	0.00109858
2	1	0	1	0	1	373.843	0.580638	0.580959	0.189727	4	0.397306	11	0	73.611	0.000110224
2	0	0	0	0	1	386.345	0.518127	0.518436	-0.049351	4	0.397618	11	0	5.901	-2.55853e-05
2	0	0	1	0	1	398.847	0.455616	0.455911	-0.0753173	4	0.396804	11	0	18.4033	-3.4338e-05
2	1	0	1	0	0	411.223	0.506275	0.506567	0.0699342	5	0.397442	11	0	11.0019	3.54263e-05
2	1	0	1	0	0	423.725	0.568786	0.569096	0.198422	5	0.398781	11	0	23.5042	0.000112921
2	1	0	0	0	0	436.227	0.631297	0.631623	1.37935	5	0.406757	11	0	36.0064	0.000871228
2	1	0	1	0	0	448.73	0.693809	0.69409	4.18483	5	0.440395	11	0	48.5086	0.00290464
2	1	0	0	0	0	461.03	0.64465	0.644922	1.74692	5	0.47932	11	0	60.8088	0.00112663
2	1	0	1	0	0	473.532	0.582139	0.582433	0.201382	5	0.489541	11	0	73.311	0.000117291
2	0	0	0	0	0	486.034	0.519628	0.519894	-0.0474368	5	0.489903	11	0	5.801	-2.46621e-05
2	0	0	1	0	0	498.536	0.457117	0.457411	-0.0749452	5	0.489099	11	0	18.3032	-3.42808e-05
2	1	0	1	0	1	510.912	0.504775	0.505082	0.0687665	6	0.489686	11	0	10.7018	3.47327e-05
2	1	0	0	0	1	523.414	0.567286	0.567571	0.184745	6	0.490964	11	0	23.204	0.000104856
2	1	0	1	0	1	535.916	0.629797	0.630039	1.30739	6	0.498442	11	0	35.7063	0.000823709
2	1	0	1	0	1	548.419	0.692308	0.692619	4.07311	6	0.530884	11	0	48.2086	0.00282111
2	1	0	0	0	1	560.719	0.64615	0.646421	1.79351	6	0.570288	11	0	60.5088	0.00115936
2	1	0	1	0	1	573.221	0.583639	0.584075	0.209751	6	0.580828	11	0	73.011	0.00012251
2	0	0	0	0	1	585.723	0.521128	0.52143	-0.0470691	6	0.581243	11	0	5.401	-2.45433e-05
2	0	0	1	0	1	598.225	0.458617	0.458935	-0.0739899	6	0.58045	11	0	17.9032	-3.39566e-05
2	1	0	1	0	0	610.601	0.503275	0.503576	0.0673117	7	0.580991	11	0	10.4018	3.38966e-05
2	1	0	0	0	0	623.103	0.565786	0.566119	0.173784	7	0.582218	11	0	22.904	9.83823e-05
2	1	0	1	0	0	635.605	0.628297	0.628624	1.24053	7	0.589245	11	0	35.4062	0.000779829
2	1	0	0	0	0	648.107	0.690808	0.691096	3.9691	7	0.620583	11	0	47.9084	0.00274303
2	1	0	1	0	0	660.408	0.64765	0.647938	1.84056	7	0.660345	11	0	60.2086	0.00119257
2	1	0	0	0	0	672.91	0.585139	0.585432	0.225415	7	0.671259	11	0	72.7108	0.000131965
2	0	0	1	0	0	685.412	0.522628	0.522959	-0.0454865	7	0.67174	11	0	5.201	-2.37876e-05
2	0	0	0	0	0	697.914	0.460117	0.460414	-0.0747978	7	0.670957	11	0	17.7032	-3.4438e-05
2	1	0	0	0	1	710.29	0.501774	0.502062	0.0663501	8	0.67145	11	0	10.1018	3.33119e-05
2	1	0	1	0	1	722.792	0.564286	0.564655	0.165431	8	0.672635	11	0	22.604	9.34114e-05
2	1	0	0	0	1	735.294	0.626797	0.6271	1.18441	8	0.679276	11	0	35.1062	0.000742743
2	1	0	1	0	1	747.796	0.689308	0.68965	3.8744	8	0.709614	11	0	47.6084	0.00267198
2	1	0	0	0	1	760.097	0.649151	0.649397	1.89246	8	0.749838	11	0	59.9086	0.00122896
2	1	0	1	0	1	772.599	0.58664	0.58692	0.241244	8	0.761212	11	0	72.4108	0.000141591
2	0	0	0	0	1	785.101	0.524128	0.524443	-0.0445441	8	0.761768	11	0	4.9008	-2.33609e-05
[...]
2	1	0	1	0	1	971.977	0.58964	0.589971	0.26431	10	0.939323	11	0	71.8108	0.000155935
2	0	0	0	0	1	984.479	0.527129	0.527472	-0.0409652	10	0.939999	11	0	4.6008	-2.1608e-05
2	0	0	1	0	1	996.981	0.464618	0.464895	-0.0724531	10	0.939248	11	0	17.103	-3.3683e-05
2	1	0	1	0	0	1009.36	0.497274	0.497565	0.0666246	11	0.939613	11	0	9.2016	3.315e-05
2	1	0	0	0	0	1021.86	0.559785	0.560072	0.139899	11	0.940692	11	0	21.7038	7.83536e-05
2	1	0	1	0	0	1034.36	0.622296	0.622593	1.01883	11	0.946277	11	0	34.206	0.000634318
2	1	0	0	0	0	1046.86	0.684807	0.685053	3.59744	11	0.973725	11	0	46.7082	0.00246443
2	1	0	1	0	0	1059.16	0.653651	0.653892	2.03791	11	1.01496	11	0	59.0084	0.00133257
2	1	0	0	0	0	1071.67	0.59114	0.591428	0.28131	11	1.02747	11	0	71.5106	0.000166375
2	0	0	1	0	0	1084.17	0.52863	0.52891	-0.0398353	11	1.02823	11	0	4.2007	-2.10693e-05
2	0	0	1	0	0	1096.67	0.466118	0.466383	-0.0706964	11	1.02749	11	0	16.703	-3.29716e-05
2	1	0	1	0	1	1109.05	0.495773	0.496057	0.0666161	12	1.02781	11	0	8.9016	3.30454e-05
2	1	0	0	0	1	1121.55	0.558285	0.558588	0.132959	12	1.02887	11	0	21.4038	7.42691e-05
2	1	0	1	0	1	1134.05	0.620796	0.621076	0.967792	12	1.03414	11	0	33.906	0.000601073
2	1	0	0	0	1	1146.55	0.683307	0.683591	3.50937	12	1.06066	11	0	46.4082	0.00239897
2	1	0	1	0	1	1158.85	0.655152	0.655536	2.08761	12	1.10219	11	0	58.7084	0.00136851
2	1	0	0	0	1	1171.35	0.592641	0.59298	0.29716	12	1.11511	11	0	71.2106	0.00017621
2	0	0	1	0	1	1183.86	0.530129	0.530427	-0.037073	12	1.11595	11	0	3.9006	-1.96645e-05
2	0	0	0	0	1	1196.36	0.467618	0.467942	-0.0709661	12	1.11523	11	0	16.4028	-3.3208e-05
2	1	0	0	0	0	1208.73	0.494273	0.494576	0.0649298	13	1.11551	11	0	8.6014	3.21127e-05
2	1	0	1	0	0	1221.24	0.556784	0.557123	0.127343	13	1.11653	11	0	21.1037	7.09457e-05
2	1	0	1	0	0	1233.74	0.619295	0.619578	0.917679	13	1.1215	11	0	33.606	0.000568574
2	1	0	0	0	0	1246.24	0.681806	0.68212	3.41268	13	1.14708	11	0	46.1082	0.00232786
2	1	0	1	0	0	1258.54	0.656652	0.65696	2.14044	13	1.18879	11	0	58.4084	0.00140618
2	1	0	0	0	0	1271.04	0.594141	0.594395	0.315107	13	1.20217	11	0	70.9106	0.000187298
2	0	0	1	0	0	1283.55	0.53163	0.531913	-0.0376095	13	1.20309	11	0	3.7006	-2.0005e-05
2	0	0	0	0	0	1296.05	0.469119	0.469407	-0.0684428	13	1.20237	11	0	16.2028	-3.21275e-05
2	1	0	0	0	1	1308.42	0.492773	0.49311	0.0635919	14	1.20261	11	0	8.3014	3.13578e-05
2	1	0	1	0	1	1320.93	0.555284	0.55562	0.120753	14	1.20361	11	0	20.8036	6.70927e-05
2	1	0	0	0	1	1333.43	0.617795	0.618076	0.867461	14	1.20828	11	0	33.3058	0.000536157
2	1	0	1	0	1	1345.93	0.680306	0.680578	3.31569	14	1.23289	11	0	45.8081	0.00225659
2	1	0	1	0	1	1358.23	0.658152	0.658421	2.16254	14	1.27454	11	0	58.1083	0.00142386
2	1	0	0	0	1	1370.73	0.595641	0.596009	0.327233	14	1.28817	11	0	70.6106	0.000195033
2	0	0	1	0	1	1383.23	0.53313	0.533444	-0.0336377	14	1.28917	11	0	3.5006	-1.79438e-05
2	0	0	0	0	1	1395.74	0.470619	0.470916	-0.0689312	14	1.28846	11	0	16.0028	-3.24608e-05
2	1	0	0	0	0	1408.11	0.491273	0.491578	0.0640678	15	1.28866	11	0	8.0014	3.14944e-05
2	1	0	1	0	0	1420.61	0.553784	0.5541	0.117218	15	1.28963	11	0	20.5036	6.49507e-05
2	1	0	0	0	0	1433.12	0.616295	0.616614	0.821205	15	1.29404	11	0	33.0058	0.000506366
2	1	0	1	0	0	1445.62	0.678806	0.679053	3.23124	15	1.3178	11	0	45.508	0.00219418
2	1	0	0	0	0	1457.92	0.659653	0.659954	2.24107	15	1.3598	11	0	57.8082	0.001479
2	1	0	1	0	0	1470.42	0.597141	0.597472	0.343127	15	1.37398	11	0	70.3104	0.000205009
2	0	0	0	0	0	1482.92	0.53463	0.534927	-0.0327079	15	1.37506	11	0	3.3005	-1.74963e-05
2	0	0	1	0	0	1495.43	0.47212	0.472449	-0.0680249	15	1.37436	11	0	15.8028	-3.21383e-05
2	0	0	1	0	0	1499.84	0.44999	0.450295	-0.0814315	15	1.37404	11	0	20.2217	-3.66682e-05

File: 20240125_2-102_010_K_elctrode4_C02.mpt
EC-Lab ASCII FILE
Nb header lines : 66

Cyclic Voltammetry Advanced

Run on channel : 2 (SN 66414)
User :
CE vs. WE compliance from -10 V to 10 V
Electrode connection : standard
Potential control : Ewe
Ewe ctrl range : min = -1.00 V, max = 1.00 V
Safety Limits :
	Do not start on E overload
Acquisition started on : 01/26/2024 17:20:27.256
Loaded Setting File :  C:\Users\NakamuraT\Documents\EC-Lab\Data\Yatsuzuka\20240126_2-102_Add_Na\20240125_2-102_003_K_elctrode1.mps
Saved on :
	File : 20240125_2-102_010_K_elctrode4_C02.mpr
	Directory : C:\Users\NakamuraT\Documents\EC-Lab\Data\Yatsuzuka\20240126_2-102_Add_Na\
	Host : 192.109.209.100
Device : SP-150e (SN .003411)
Address : 192.109.209.236
EC-Lab for windows v11.50 (software)
Internet server v11.50 (firmware)
Command interpretor v11.50 (firmware)
Electrode material :
Initial state :
Electrolyte :
Comments :
Electrode surface area : 0.001 cm2
Characteristic mass : 0.001 g
Equivalent Weight : 0.000 g/eq.
Density : 0.000 g/cm3
Volume (V) : 0.001 cm3
Cycle Definition : Charge/Discharge alternance
Ei (V)              0.450
vs.                 Ref
ti (h:m:s)          0:00:10.0000
dti (s)             0.0000
dE/dt               5.000
dE/dt unit          mV/s
E1 (V)              0.700
vs.                 Ref
t1 (h:m:s)          0:00:0.0000
dt1 (s)             0.1000
Step percent        50
N                   10
E range min (V)     -1.000
E range max (V)     1.000
I Range             10 mA
I Range min         Unset
I Range max         Unset
I Range init        Unset
Bandwidth           5
E2 (V)              0.450
vs.                 Ref
t2 (h:m:s)          0:00:0.0000
dt2 (s)             0.1000
nc cycles           14
nr                  1
Reverse Scan        0
Ef (V)              0.000
vs.                 Eoc
tf (h:m:s)          0:00:0.0000
dtf (s)             0.1000

mode	ox/red	error	control changes	Ns changes	counter inc.	time/s	control/V	Ewe/V	<I>/mA	cycle number	(Q-Qo)/C	I Range	Ns	step time/s	P/W
2	1	0	0	0	0	0.000000000000000E+000	0.449961	0.450369	0.00709824	1	0.0000000E+000	11	0	0.000000000000000E+000	3.19683e-06
2	1	0	1	0	0	12.2565	0.511244	0.511606	0.269687	1	0.00216176	11	0	12.2015	0.000137974
2	1	0	1	0	0	24.5581	0.572752	0.573089	1.30091	1	0.0100592	11	0	24.5031	0.000745539
2	1	0	1	0	0	36.8596	0.63426	0.63461	4.23803	1	0.0425101	11	0	36.8046	0.00268949
2	1	0	1	0	0	49.1612	0.695768	0.696156	8.23037	1	0.118746	11	0	49.1062	0.00572962
2	1	0	0	0	0	61.269	0.643661	0.644113	4.54087	1	0.198529	11	0	61.214	0.00292483
2	1	0	0	0	0	73.5706	0.582153	0.582458	1.30575	1	0.232741	11	0	73.5156	0.000760544
2	1	0	0	0	0	85.8722	0.520645	0.520896	0.047107	1	0.239008	11	0	85.8172	2.45379e-05
2	0	0	0	0	0	98.1738	0.459137	0.459522	-0.098613	1	0.238365	11	0	10.5013	-4.53149e-05
2	1	0	0	0	1	110.353	0.501793	0.502093	0.144937	2	0.239329	11	0	10.1012	7.27721e-05
2	1	0	0	0	1	122.654	0.563301	0.563584	0.81048	2	0.243738	11	0	22.4028	0.000456774
2	1	0	0	0	1	134.956	0.624809	0.625141	3.45947	2	0.268004	11	0	34.7044	0.00216265
2	1	0	0	0	1	147.258	0.686317	0.686664	7.34734	2	0.334045	11	0	47.006	0.00504516
2	1	0	1	0	1	159.355	0.653162	0.65353	5.02107	2	0.417426	11	0	59.1038	0.00328142
2	1	0	1	0	1	171.657	0.591654	0.591886	1.62079	2	0.456865	11	0	71.4054	0.000959324
2	1	0	1	0	1	183.959	0.530146	0.530426	0.105353	2	0.465288	11	0	83.707	5.58817e-05
2	0	0	1	0	1	196.26	0.468639	0.468874	-0.089706	2	0.464903	11	0	8.9012	-4.20608e-05
2	1	0	1	0	0	208.439	0.492292	0.492585	0.121702	3	0.465392	11	0	8.201	5.99487e-05
2	1	0	1	0	0	220.741	0.553799	0.554173	0.563664	3	0.468543	11	0	20.5026	0.000312368
2	1	0	1	0	0	233.042	0.615307	0.615643	2.85933	3	0.487367	11	0	32.8042	0.00176033
2	1	0	1	0	0	245.344	0.676815	0.677156	6.62076	3	0.545011	11	0	45.1058	0.00448328
2	1	0	0	0	0	257.442	0.662664	0.662929	5.58201	3	0.631026	11	0	57.2036	0.00370048
2	1	0	0	0	0	269.743	0.601156	0.601419	2.00155	3	0.676503	11	0	69.5052	0.00120377
2	1	0	0	0	0	282.045	0.539648	0.54004	0.194519	3	0.687764	11	0	81.8068	0.000105048
2	0	0	0	0	0	294.347	0.47814	0.478522	-0.0860932	3	0.687792	11	0	7.201	-4.11975e-05
2	1	0	0	0	1	306.526	0.48279	0.483076	0.112766	4	0.68788	11	0	6.3008	5.44745e-05
2	1	0	0	0	1	318.827	0.544298	0.544599	0.398529	4	0.690265	11	0	18.6024	0.000217038
2	1	0	0	0	1	331.129	0.605806	0.606117	2.33348	4	0.704714	11	0	30.904	0.00141436
2	1	0	0	0	1	343.43	0.667314	0.66739	5.94545	4	0.754574	11	0	43.2056	0.00396793
2	1	0	1	0	1	355.528	0.672165	0.67254	6.17969	4	0.840494	11	0	55.3034	0.00415609
2	1	0	1	0	1	367.83	0.610657	0.610971	2.41466	4	0.892364	11	0	67.605	0.00147529
2	1	0	1	0	1	380.131	0.549149	0.549498	0.321364	4	0.907002	11	0	79.9066	0.000176589
2	0	0	1	0	1	392.433	0.487641	0.487946	-0.074634	4	0.90762	11	0	5.4008	-3.64174e-05
2	1	0	1	0	0	404.612	0.473289	0.473617	0.105225	5	0.907353	11	0	4.4006	4.98362e-05
2	1	0	1	0	0	416.913	0.534797	0.535132	0.285253	5	0.909254	11	0	16.7021	0.000152648
2	1	0	1	0	0	429.215	0.596305	0.5966	1.85448	5	0.920106	11	0	29.0037	0.00110638
2	1	0	1	0	0	441.517	0.657813	0.658092	5.3075	5	0.962842	11	0	41.3053	0.00349283
2	1	0	1	0	0	453.614	0.681666	0.681925	6.75935	5	1.04697	11	0	53.403	0.00460937
2	1	0	1	0	0	465.916	0.620158	0.620554	2.91962	5	1.10544	11	0	65.7046	0.00181178
2	1	0	1	0	0	478.218	0.55865	0.558888	0.493306	5	1.12427	11	0	78.0062	0.000275703
2	0	0	1	0	0	490.519	0.497142	0.497458	-0.0583816	5	1.12575	11	0	3.6004	-2.90424e-05
2	1	0	1	0	1	502.698	0.463788	0.464033	0.100692	6	1.12516	11	0	2.5002	4.67244e-05
2	1	0	1	0	1	515	0.525296	0.525588	0.209027	6	1.12676	11	0	14.8018	0.000109862
2	1	0	1	0	1	527.301	0.586804	0.587173	1.44054	6	1.1348	11	0	27.1034	0.000845845
2	1	0	1	0	1	539.603	0.648312	0.648651	4.647	6	1.17072	11	0	39.405	0.00301428
2	1	0	0	0	1	551.701	0.691167	0.69152	7.39201	6	1.24976	11	0	51.5028	0.00511172
2	1	0	0	0	1	564.002	0.629659	0.629996	3.36772	6	1.31495	11	0	63.8044	0.00212165
2	1	0	0	0	1	576.304	0.568151	0.568485	0.709035	6	1.33801	11	0	76.106	0.000403076
2	0	0	0	0	1	588.606	0.506643	0.506946	-0.0337611	6	1.34063	11	0	1.8002	-1.71151e-05
2	1	0	0	0	0	600.785	0.454287	0.4546	0.0891137	7	1.33978	11	0	0.6	4.0511e-05
2	1	0	0	0	0	613.086	0.515795	0.516122	0.163342	7	1.34119	11	0	12.9016	8.43044e-05
2	1	0	0	0	0	625.388	0.577302	0.577682	1.08533	7	1.34705	11	0	25.2032	0.000626973
2	1	0	0	0	0	637.689	0.63881	0.639114	4.06245	7	1.37691	11	0	37.5048	0.00259637
2	1	0	1	0	0	649.922	0.699994	0.700289	8.12543	7	1.45092	11	0	49.7376	0.00569015
2	1	0	1	0	0	662.089	0.639161	0.639531	3.93878	7	1.52342	11	0	61.9042	0.00251897
2	1	0	1	0	0	674.39	0.577653	0.577937	0.971907	7	1.55183	11	0	74.2058	0.000561701
2	0	0	1	0	0	686.692	0.516145	0.516421	-0.000966889	7	1.55598	11	0	0.000000000000000E+000	-4.99322e-07
2	0	0	1	0	0	698.994	0.454637	0.454954	-0.099424	7	1.55515	11	0	12.2016	-4.52333e-05
2	1	0	1	0	1	711.173	0.506293	0.506651	0.134237	8	1.55621	11	0	11.0014	6.80112e-05
2	1	0	1	0	1	723.474	0.567801	0.568109	0.796814	8	1.5605	11	0	23.303	0.000452678
2	1	0	1	0	1	735.776	0.629309	0.629665	3.46202	8	1.58466	11	0	35.6046	0.00217991
2	1	0	1	0	1	748.077	0.690817	0.691138	7.41035	8	1.65091	11	0	47.9062	0.00512157
2	1	0	0	0	1	760.175	0.648662	0.648944	4.50099	8	1.72851	11	0	60.004	0.00292089
2	1	0	0	0	1	772.477	0.587154	0.587513	1.29445	8	1.76256	11	0	72.3056	0.000760505
2	1	0	0	0	1	784.778	0.525646	0.525882	0.0461414	8	1.76875	11	0	84.6072	2.42649e-05
[...]
2	1	0	1	0	1	980.951	0.544648	0.545032	0.217128	10	2.19012	11	0	80.8066	0.000118342
2	0	0	1	0	1	993.253	0.48314	0.483425	-0.0771948	10	2.19026	11	0	6.8008	-3.73179e-05
2	1	0	1	0	0	1005.43	0.47779	0.478091	0.10079	11	2.19015	11	0	5.3006	4.81867e-05
2	1	0	1	0	0	1017.73	0.539298	0.539668	0.296008	11	2.19208	11	0	17.6022	0.000159746
2	1	0	1	0	0	1030.03	0.600806	0.601036	1.92139	11	2.2034	11	0	29.9038	0.00115482
2	1	0	1	0	0	1042.34	0.662313	0.662589	5.41836	11	2.24728	11	0	42.2054	0.00359014
2	1	0	0	0	0	1054.43	0.677165	0.677465	6.39322	11	2.33021	11	0	54.3032	0.00433119
2	1	0	0	0	0	1066.74	0.615657	0.61593	2.52856	11	2.38382	11	0	66.6048	0.00155741
2	1	0	0	0	0	1079.04	0.55415	0.554497	0.350682	11	2.3992	11	0	78.9064	0.000194452
2	0	0	0	0	0	1091.34	0.492642	0.492954	-0.069056	11	2.39998	11	0	4.9006	-3.40414e-05
2	1	0	0	0	1	1103.52	0.468288	0.468598	0.0975843	12	2.39954	11	0	3.4004	4.57279e-05
2	1	0	0	0	1	1115.82	0.529796	0.530039	0.221229	12	2.40116	11	0	15.702	0.00011726
2	1	0	0	0	1	1128.12	0.591304	0.591616	1.50261	12	2.4096	11	0	28.0036	0.000888966
2	1	0	0	0	1	1140.42	0.652812	0.653192	4.76916	12	2.44675	11	0	40.3052	0.00311518
2	1	0	1	0	1	1152.52	0.686667	0.686951	6.98448	12	2.52627	11	0	52.403	0.004798
2	1	0	1	0	1	1164.82	0.625159	0.625477	2.99225	12	2.58662	11	0	64.7046	0.00187158
2	1	0	1	0	1	1177.12	0.563651	0.563933	0.52115	12	2.60611	11	0	77.0062	0.000293894
2	0	0	1	0	1	1189.43	0.502143	0.502492	-0.0486137	12	2.60778	11	0	3.1004	-2.4428e-05
2	1	0	1	0	0	1201.6	0.458787	0.459139	0.0944049	13	2.60704	11	0	1.5002	4.33449e-05
2	1	0	1	0	0	1213.91	0.520295	0.520654	0.171422	13	2.60846	11	0	13.8018	8.92514e-05
2	1	0	1	0	0	1226.21	0.581803	0.582098	1.14376	13	2.61465	11	0	26.1034	0.00066578
2	1	0	1	0	0	1238.51	0.643311	0.643558	4.16651	13	2.64554	11	0	38.405	0.00268139
2	1	0	0	0	0	1250.61	0.696168	0.696419	7.57315	13	2.71932	11	0	50.5028	0.00527408
2	1	0	0	0	0	1262.91	0.63466	0.634941	3.45709	13	2.78612	11	0	62.8044	0.00219505
2	1	0	1	0	0	1275.21	0.573152	0.573454	0.750585	13	2.81009	11	0	75.1059	0.000430425
2	0	0	1	0	0	1287.51	0.511644	0.511912	-0.0255677	13	2.81299	11	0	1.3001	-1.30884e-05
2	0	0	1	0	0	1299.8	0.450211	0.450574	-0.0992729	13	2.81207	11	0	13.5866	-4.47298e-05
2	1	0	1	0	1	1311.99	0.510794	0.511022	0.139365	14	2.8133	11	0	11.9014	7.12188e-05
2	1	0	1	0	1	1324.29	0.572302	0.572615	0.853082	14	2.81785	11	0	24.203	0.000488487
2	1	0	1	0	1	1336.6	0.63381	0.634112	3.57969	14	2.84315	11	0	36.5046	0.00226992
2	1	0	1	0	1	1348.9	0.695318	0.695635	7.63148	14	2.91117	11	0	48.8062	0.00530873
2	1	0	0	0	1	1360.99	0.644161	0.644462	4.07091	14	2.9844	11	0	60.904	0.00262355
2	1	0	0	0	1	1373.3	0.582653	0.582979	1.02726	14	3.01394	11	0	73.2056	0.000598869
2	1	0	0	0	1	1385.6	0.521145	0.521478	0.0076236	14	3.01847	11	0	85.5072	3.97554e-06
2	0	0	0	0	1	1397.9	0.459637	0.459928	-0.0916161	14	3.01771	11	0	11.7014	-4.21368e-05
2	1	0	0	0	0	1410.08	0.501293	0.501606	0.117229	15	3.01852	11	0	10.0012	5.88026e-05
2	1	0	0	0	0	1422.38	0.562801	0.563114	0.615714	15	3.02187	11	0	22.3028	0.000346717
2	1	0	0	0	0	1434.68	0.624309	0.624635	3.02646	15	3.04209	11	0	34.6044	0.00189043
2	1	0	0	0	0	1446.98	0.685817	0.686065	6.90989	15	3.10225	11	0	46.906	0.00474063
2	1	0	1	0	0	1459.08	0.653662	0.65394	4.60031	15	3.18088	11	0	59.0038	0.00300832
2	1	0	1	0	0	1471.38	0.592154	0.592428	1.34693	15	3.21577	11	0	71.3054	0.000797957
2	1	0	1	0	0	1483.68	0.530646	0.530944	0.0622724	15	3.22235	11	0	83.607	3.30632e-05
2	0	0	1	0	0	1495.99	0.469139	0.469452	-0.0895937	15	3.22183	11	0	9.8012	-4.20599e-05
2	0	0	0	0	0	1499.81	0.450011	0.450274	-0.112295	15	3.22146	11	0	13.624	-5.05634e-05