Folder: SI_for_publications/ACS_Catal_2026/Figures_Na_K/main_figures/data/EC/20240126_2-102_Add_Na (part 4)

File: 20240125_2-102_005_add_Na_5mL_elctrode1_C01.mpt
EC-Lab ASCII FILE
Nb header lines : 66

Cyclic Voltammetry Advanced

Run on channel : 1 (SN 66412)
User :
CE vs. WE compliance from -10 V to 10 V
Electrode connection : standard
Potential control : Ewe
Ewe ctrl range : min = -1.00 V, max = 1.00 V
Safety Limits :
	Do not start on E overload
Acquisition started on : 01/26/2024 16:16:32.098
Loaded Setting File :  C:\Users\NakamuraT\Documents\EC-Lab\Data\Yatsuzuka\20240125_2-101_K_new_condition\20240125_2-101_004_reused_solution_30min_wait_elctrode1_C01.mpr
Saved on :
	File : 20240125_2-102_003_add_Na_5mL_elctrode1_C01.mpr
	Directory : C:\Users\NakamuraT\Documents\EC-Lab\Data\Yatsuzuka\20240126_2-102_Add_Na\
	Host : 192.109.209.100
Device : SP-150e (SN .003411)
Address : 192.109.209.236
EC-Lab for windows v11.50 (software)
Internet server v11.50 (firmware)
Command interpretor v11.50 (firmware)
Electrode material :
Initial state :
Electrolyte :
Comments :
Electrode surface area : 0.001 cm2
Characteristic mass : 0.001 g
Equivalent Weight : 0.000 g/eq.
Density : 0.000 g/cm3
Volume (V) : 0.001 cm3
Cycle Definition : Charge/Discharge alternance
Ei (V)              0.450
vs.                 Ref
ti (h:m:s)          0:00:10.0000
dti (s)             0.0000
dE/dt               5.000
dE/dt unit          mV/s
E1 (V)              0.700
vs.                 Ref
t1 (h:m:s)          0:00:0.0000
dt1 (s)             0.1000
Step percent        50
N                   10
E range min (V)     -1.000
E range max (V)     1.000
I Range             10 mA
I Range min         Unset
I Range max         Unset
I Range init        Unset
Bandwidth           5
E2 (V)              0.450
vs.                 Ref
t2 (h:m:s)          0:00:0.0000
dt2 (s)             0.1000
nc cycles           14
nr                  1
Reverse Scan        0
Ef (V)              0.000
vs.                 Eoc
tf (h:m:s)          0:00:0.0000
dtf (s)             0.1000

mode	ox/red	error	control changes	Ns changes	counter inc.	time/s	control/V	Ewe/V	<I>/mA	cycle number	(Q-Qo)/C	I Range	Ns	step time/s	P/W
2	1	0	1	0	0	0.000000000000000E+000	0.44994	0.45018	5.52691e-05	1	0.0000000E+000	11	0	0.000000000000000E+000	2.48811e-08
2	1	0	1	0	0	12.3571	0.511726	0.511963	0.101982	1	0.00119313	11	0	12.3021	5.22111e-05
2	1	0	1	0	0	24.7593	0.573737	0.574046	0.281211	1	0.00310781	11	0	24.7043	0.000161428
2	1	0	0	0	0	37.1616	0.635748	0.636057	1.73556	1	0.0134495	11	0	37.1066	0.00110392
2	1	0	1	0	0	49.5638	0.697759	0.698112	5.0023	1	0.0539442	11	0	49.5088	0.00349217
2	1	0	1	0	0	61.7739	0.641149	0.641476	1.791	1	0.0954188	11	0	61.7189	0.00114888
2	1	0	1	0	0	74.1761	0.579138	0.579469	0.168128	1	0.105368	11	0	74.1211	9.74252e-05
2	0	0	0	0	0	86.5784	0.517127	0.517531	-0.078271	1	0.105349	11	0	7.4014	-4.05076e-05
2	0	0	1	0	0	98.9806	0.455116	0.455466	-0.106686	1	0.104169	11	0	19.8036	-4.85918e-05
2	1	0	1	0	1	111.256	0.506275	0.506579	0.0972629	2	0.105063	11	0	11.0019	4.92713e-05
2	1	0	1	0	1	123.658	0.568286	0.568605	0.225409	2	0.106719	11	0	23.4041	0.000128169
2	1	0	1	0	1	136.06	0.630297	0.630648	1.45509	2	0.115082	11	0	35.8064	0.000917647
2	1	0	0	0	1	148.463	0.692308	0.692628	4.58966	2	0.151125	11	0	48.2086	0.00317893
2	1	0	1	0	1	160.663	0.64665	0.646918	1.98862	2	0.194914	11	0	60.4087	0.00128647
2	1	0	1	0	1	173.065	0.584639	0.585	0.217136	2	0.206357	11	0	72.8109	0.000127025
2	0	0	1	0	1	185.467	0.522628	0.522879	-0.0714446	2	0.206583	11	0	6.5012	-3.73569e-05
2	0	0	0	0	1	197.869	0.460617	0.460897	-0.106725	2	0.20544	11	0	18.9034	-4.91891e-05
2	1	0	0	0	0	210.145	0.500774	0.501066	0.0970491	3	0.206105	11	0	9.9018	4.8628e-05
2	1	0	1	0	0	222.547	0.562785	0.563099	0.188943	3	0.207617	11	0	22.304	0.000106393
2	1	0	0	0	0	234.949	0.624796	0.625077	1.23835	3	0.214568	11	0	34.7062	0.000774066
2	1	0	1	0	0	247.351	0.686807	0.687115	4.23976	3	0.246919	11	0	47.1084	0.0029132
2	1	0	0	0	0	259.552	0.652151	0.652411	2.22969	3	0.293052	11	0	59.3086	0.00145467
2	1	0	1	0	0	271.954	0.59014	0.590438	0.284726	3	0.306424	11	0	71.7108	0.000168113
2	0	0	0	0	0	284.356	0.528129	0.528409	-0.0654814	3	0.306977	11	0	5.401	-3.4601e-05
2	0	0	1	0	0	296.758	0.466118	0.466406	-0.103439	3	0.305873	11	0	17.8032	-4.82447e-05
2	1	0	1	0	1	309.034	0.495273	0.495592	0.0951804	4	0.306317	11	0	8.8016	4.71706e-05
2	1	0	0	0	1	321.436	0.557284	0.557587	0.164775	4	0.307727	11	0	21.2038	9.18762e-05
2	1	0	1	0	1	333.838	0.619295	0.619633	1.04652	4	0.313521	11	0	33.606	0.000648457
2	1	0	0	0	1	346.24	0.681306	0.681651	3.89338	4	0.342393	11	0	46.0082	0.00265393
2	1	0	1	0	1	358.44	0.657652	0.657926	2.47255	4	0.390053	11	0	58.2084	0.00162676
2	1	0	1	0	1	370.843	0.595641	0.595981	0.363852	4	0.405437	11	0	70.6106	0.000216849
2	0	0	0	0	1	383.245	0.53363	0.533869	-0.058248	4	0.406388	11	0	4.4008	-3.10968e-05
2	0	0	1	0	1	395.647	0.471619	0.471897	-0.100382	4	0.405329	11	0	16.803	-4.73702e-05
2	1	0	1	0	0	407.922	0.489772	0.490126	0.0940337	5	0.405555	11	0	7.7014	4.60883e-05
2	1	0	0	0	0	420.325	0.551783	0.55203	0.14684	5	0.406891	11	0	20.1036	8.10603e-05
2	1	0	1	0	0	432.727	0.613794	0.614124	0.884688	5	0.411759	11	0	32.5058	0.000543309
2	1	0	0	0	0	445.129	0.675805	0.676123	3.56601	5	0.437465	11	0	44.908	0.00241107
2	1	0	1	0	0	457.329	0.663153	0.663458	2.7562	5	0.486302	11	0	57.1082	0.00182862
2	1	0	0	0	0	469.731	0.601142	0.601467	0.461652	5	0.504056	11	0	69.5104	0.000277669
2	0	0	1	0	0	482.134	0.539131	0.539451	-0.0485403	5	0.505506	11	0	3.4006	-2.61851e-05
2	0	0	0	0	0	494.536	0.47712	0.477418	-0.099563	5	0.504498	11	0	15.8028	-4.75331e-05
2	1	0	0	0	1	506.811	0.484271	0.484596	0.0939293	6	0.50451	11	0	6.6012	4.55177e-05
2	1	0	1	0	1	519.213	0.546282	0.546605	0.131183	6	0.50579	11	0	19.0034	7.17051e-05
2	1	0	0	0	1	531.616	0.608293	0.608653	0.741472	6	0.509871	11	0	31.4056	0.000451299
2	1	0	1	0	1	544.018	0.670304	0.670555	3.24222	6	0.532559	11	0	43.8078	0.00217409
2	1	0	0	0	1	556.218	0.668654	0.668916	3.0192	6	0.581592	11	0	56.008	0.00201959
2	1	0	1	0	1	568.62	0.606643	0.606918	0.563039	6	0.601656	11	0	68.4102	0.000341719
2	0	0	0	0	1	581.022	0.544632	0.544971	-0.0386534	6	0.603648	11	0	2.3004	-2.1065e-05
2	0	0	1	0	1	593.425	0.482621	0.482903	-0.0963846	6	0.602695	11	0	14.7026	-4.65445e-05
2	1	0	1	0	0	605.7	0.47877	0.479071	0.0935095	7	0.602497	11	0	5.501	4.47977e-05
2	1	0	0	0	0	618.102	0.540781	0.54109	0.120565	7	0.603733	11	0	17.9032	6.52363e-05
2	1	0	1	0	0	630.504	0.602792	0.603114	0.615416	7	0.607172	11	0	30.3054	0.000371166
2	1	0	0	0	0	642.907	0.664803	0.665123	2.93932	7	0.627081	11	0	42.7076	0.00195501
2	1	0	1	0	0	655.107	0.674155	0.674412	3.32236	7	0.675915	11	0	54.9078	0.00224064
2	1	0	0	0	0	667.509	0.612144	0.612457	0.69619	7	0.698753	11	0	67.31	0.000426386
2	0	0	1	0	0	679.911	0.550133	0.550402	-0.0244848	7	0.701479	11	0	1.2002	-1.34765e-05
2	0	0	0	0	0	692.313	0.488122	0.488488	-0.0927053	7	0.7006	11	0	13.6024	-4.52854e-05
2	1	0	0	0	1	704.589	0.473269	0.473577	0.0920919	8	0.700199	11	0	4.4008	4.36126e-05
2	1	0	1	0	1	716.991	0.53528	0.535587	0.112163	8	0.701407	11	0	16.803	6.0073e-05
2	1	0	0	0	1	729.393	0.597291	0.597669	0.517701	8	0.704354	11	0	29.2052	0.000309414
2	1	0	1	0	1	741.795	0.659302	0.65956	2.65655	8	0.721824	11	0	41.6074	0.00175215
2	1	0	0	0	1	753.996	0.679656	0.679955	3.65041	8	0.76995	11	0	53.8076	0.00248211
2	1	0	1	0	1	766.398	0.617645	0.617951	0.848739	8	0.795901	11	0	66.2098	0.000524479
2	0	0	0	0	1	778.8	0.555634	0.555923	-0.00439392	8	0.799514	11	0	0.2001	-2.44268e-06
[...]
2	1	0	0	0	1	976.578	0.566636	0.566899	0.0480225	10	0.994867	11	0	76.4116	2.72239e-05
2	0	0	1	0	1	988.98	0.504625	0.504993	-0.0848288	10	0.994313	11	0	10.4019	-4.28379e-05
2	1	0	1	0	0	1001.26	0.456766	0.457088	0.0850294	11	0.993321	11	0	1.1002	3.88659e-05
2	1	0	0	0	0	1013.66	0.518777	0.519081	0.0989581	11	0.994474	11	0	13.5024	5.13673e-05
2	1	0	1	0	0	1026.06	0.580789	0.581084	0.299219	11	0.996427	11	0	25.9046	0.000173871
2	1	0	0	0	0	1038.46	0.642799	0.64308	1.8646	11	1.00761	11	0	38.3068	0.00119908
2	1	0	1	0	0	1050.66	0.696159	0.696519	4.66648	11	1.04918	11	0	50.507	0.00325029
2	1	0	0	0	0	1063.06	0.634148	0.63444	1.38208	11	1.0849	11	0	62.9092	0.000876846
2	1	0	1	0	0	1075.47	0.572137	0.572425	0.0830257	11	1.09193	11	0	75.3114	4.7526e-05
2	0	0	0	0	0	1087.87	0.510126	0.510457	-0.0830343	11	1.09154	11	0	9.2016	-4.23854e-05
2	0	0	0	0	1	1100.14	0.451265	0.451562	0.0198023	12	1.09038	11	0	0.000000000000000E+000	8.94198e-06
2	1	0	1	0	1	1112.55	0.513277	0.513574	0.0955889	12	1.0915	11	0	12.4022	4.9092e-05
2	1	0	0	0	1	1124.95	0.575287	0.575551	0.252664	12	1.09325	11	0	24.8044	0.000145421
2	1	0	1	0	1	1137.35	0.637299	0.637577	1.62789	12	1.10275	11	0	37.2066	0.00103791
2	1	0	0	0	1	1149.75	0.69931	0.69966	4.88127	12	1.14177	11	0	49.6088	0.00341523
2	1	0	1	0	1	1161.95	0.639649	0.639972	1.58914	12	1.18001	11	0	61.809	0.00101701
2	1	0	0	0	1	1174.36	0.577638	0.577923	0.124849	12	1.1885	11	0	74.2112	7.2153e-05
2	0	0	1	0	1	1186.76	0.515627	0.515934	-0.078758	12	1.1883	11	0	8.2015	-4.06339e-05
2	0	0	0	0	1	1199.16	0.453616	0.453946	-0.105916	12	1.18714	11	0	20.6037	-4.808e-05
2	1	0	0	0	0	1211.43	0.507776	0.50808	0.0957666	13	1.18807	11	0	11.302	4.86571e-05
2	1	0	1	0	0	1223.84	0.569787	0.570092	0.212991	13	1.18965	11	0	23.7042	0.000121424
2	1	0	0	0	0	1236.24	0.631798	0.632112	1.4093	13	1.19768	11	0	36.1064	0.000890836
2	1	0	1	0	0	1248.64	0.693809	0.694141	4.53131	13	1.23304	11	0	48.5086	0.00314537
2	1	0	0	0	0	1260.84	0.64515	0.645427	1.81018	13	1.27442	11	0	60.7088	0.00116834
2	1	0	1	0	0	1273.24	0.583139	0.583419	0.176082	13	1.28454	11	0	73.111	0.00010273
2	0	0	0	0	0	1285.65	0.521128	0.521462	-0.0751312	13	1.28458	11	0	7.1013	-3.91781e-05
2	0	0	1	0	0	1298.05	0.459117	0.459437	-0.102895	13	1.28345	11	0	19.5035	-4.72736e-05
2	1	0	1	0	1	1310.32	0.502275	0.502557	0.0945913	14	1.28415	11	0	10.2018	4.75375e-05
2	1	0	0	0	1	1322.73	0.564286	0.564657	0.183101	14	1.28562	11	0	22.604	0.000103389
2	1	0	1	0	1	1335.13	0.626297	0.626579	1.20932	14	1.29237	11	0	35.0062	0.000757735
2	1	0	0	0	1	1347.53	0.688308	0.688639	4.20138	14	1.32428	11	0	47.4084	0.00289324
2	1	0	1	0	1	1359.73	0.650651	0.650953	2.0608	14	1.36836	11	0	59.6086	0.00134148
2	1	0	0	0	1	1372.13	0.58864	0.588954	0.237826	14	1.38035	11	0	72.0108	0.000140069
2	0	0	1	0	1	1384.53	0.526629	0.526956	-0.0691357	14	1.38069	11	0	6.1012	-3.64315e-05
2	0	0	0	0	1	1396.94	0.464618	0.464945	-0.100485	14	1.37959	11	0	18.5034	-4.672e-05
2	1	0	0	0	0	1409.21	0.496774	0.497088	0.0927786	15	1.38008	11	0	9.1016	4.61192e-05
2	1	0	1	0	0	1421.61	0.558785	0.559076	0.160094	15	1.38146	11	0	21.5038	8.9505e-05
2	1	0	0	0	0	1434.02	0.620796	0.621098	1.02825	15	1.38712	11	0	33.906	0.000638641
2	1	0	1	0	0	1446.42	0.682807	0.683067	3.86025	15	1.41566	11	0	46.3082	0.00263681
2	1	0	0	0	0	1458.62	0.656152	0.656462	2.31158	15	1.46159	11	0	58.5084	0.00151746
2	1	0	1	0	0	1471.02	0.594141	0.594412	0.310822	15	1.47558	11	0	70.9106	0.000184757
2	0	0	0	0	0	1483.42	0.53213	0.532398	-0.0624209	15	1.47627	11	0	5.001	-3.32327e-05
2	0	0	1	0	0	1495.83	0.470119	0.470391	-0.0995675	15	1.47521	11	0	17.4032	-4.68356e-05
2	0	0	0	0	0	1499.84	0.44999	0.450257	-0.110667	15	1.4748	11	0	21.422	-4.98287e-05

File: 20240125_2-102_006_add_Na_5mL_elctrode2_C02.mpt
EC-Lab ASCII FILE
Nb header lines : 66

Cyclic Voltammetry Advanced

Run on channel : 2 (SN 66414)
User :
CE vs. WE compliance from -10 V to 10 V
Electrode connection : standard
Potential control : Ewe
Ewe ctrl range : min = -1.00 V, max = 1.00 V
Safety Limits :
	Do not start on E overload
Acquisition started on : 01/26/2024 16:20:08.438
Loaded Setting File :  C:\Users\NakamuraT\Documents\EC-Lab\Data\Yatsuzuka\20240126_2-102_Add_Na\20240125_2-102_003_K_elctrode1_C01.mpr
Saved on :
	File : 20240125_2-102_006_add_Na_5mL_elctrode2_C02.mpr
	Directory : C:\Users\NakamuraT\Documents\EC-Lab\Data\Yatsuzuka\20240126_2-102_Add_Na\
	Host : 192.109.209.100
Device : SP-150e (SN .003411)
Address : 192.109.209.236
EC-Lab for windows v11.50 (software)
Internet server v11.50 (firmware)
Command interpretor v11.50 (firmware)
Electrode material :
Initial state :
Electrolyte :
Comments :
Electrode surface area : 0.001 cm2
Characteristic mass : 0.001 g
Equivalent Weight : 0.000 g/eq.
Density : 0.000 g/cm3
Volume (V) : 0.001 cm3
Cycle Definition : Charge/Discharge alternance
Ei (V)              0.450
vs.                 Ref
ti (h:m:s)          0:00:10.0000
dti (s)             0.0000
dE/dt               5.000
dE/dt unit          mV/s
E1 (V)              0.700
vs.                 Ref
t1 (h:m:s)          0:00:0.0000
dt1 (s)             0.1000
Step percent        50
N                   10
E range min (V)     -1.000
E range max (V)     1.000
I Range             10 mA
I Range min         Unset
I Range max         Unset
I Range init        Unset
Bandwidth           5
E2 (V)              0.450
vs.                 Ref
t2 (h:m:s)          0:00:0.0000
dt2 (s)             0.1000
nc cycles           14
nr                  1
Reverse Scan        0
Ef (V)              0.000
vs.                 Eoc
tf (h:m:s)          0:00:0.0000
dtf (s)             0.1000

mode	ox/red	error	control changes	Ns changes	counter inc.	time/s	control/V	Ewe/V	<I>/mA	cycle number	(Q-Qo)/C	I Range	Ns	step time/s	P/W
2	1	0	1	0	0	0.000000000000000E+000	0.449961	0.450216	0.00276917	1	0.0000000E+000	11	0	0.000000000000000E+000	1.24673e-06
2	1	0	1	0	0	12.3566	0.511744	0.512063	0.0761728	1	0.000756191	11	0	12.3016	3.90053e-05
2	1	0	1	0	0	24.7582	0.573752	0.574093	0.383849	1	0.00288637	11	0	24.7032	0.000220365
2	1	0	1	0	0	37.1598	0.63576	0.636069	2.13046	1	0.0165012	11	0	37.1048	0.00135512
2	1	0	1	0	0	49.5614	0.697768	0.698126	5.33577	1	0.0618173	11	0	49.5064	0.00372504
2	1	0	0	0	0	61.7692	0.641161	0.641525	2.25894	1	0.108385	11	0	61.7142	0.00144916
2	1	0	0	0	0	74.1708	0.579153	0.579442	0.359561	1	0.122612	11	0	74.1158	0.000208344
2	0	0	0	0	0	86.5724	0.517145	0.517439	-0.0202274	1	0.123867	11	0	2.3004	-1.04665e-05
2	0	0	0	0	0	98.974	0.455137	0.455357	-0.0584162	1	0.123309	11	0	14.702	-2.66003e-05
2	1	0	0	0	1	111.253	0.506293	0.506571	0.0675415	2	0.12388	11	0	11.0014	3.42146e-05
2	1	0	0	0	1	123.655	0.568301	0.568596	0.303596	2	0.125607	11	0	23.403	0.000172623
2	1	0	0	0	1	136.056	0.630309	0.630605	1.85327	2	0.136957	11	0	35.8046	0.00116868
2	1	0	0	0	1	148.458	0.692317	0.692585	4.94714	2	0.178113	11	0	48.2062	0.00342631
2	1	0	1	0	1	160.656	0.646661	0.64697	2.46403	2	0.227107	11	0	60.404	0.00159416
2	1	0	1	0	1	173.057	0.584653	0.584916	0.442401	2	0.243197	11	0	72.8056	0.000258767
2	0	0	1	0	1	185.459	0.522645	0.522935	-0.0142303	2	0.244861	11	0	1.3002	-7.4415e-06
2	0	0	1	0	1	197.86	0.460637	0.460867	-0.0579521	2	0.244337	11	0	13.7018	-2.67082e-05
2	1	0	1	0	0	210.139	0.500793	0.501153	0.0643695	3	0.244769	11	0	9.9012	3.2259e-05
2	1	0	1	0	0	222.541	0.562801	0.563135	0.246864	3	0.246244	11	0	22.3028	0.000139018
2	1	0	1	0	0	234.943	0.624809	0.625097	1.62405	3	0.255876	11	0	34.7044	0.00101519
2	1	0	1	0	0	247.344	0.686817	0.687093	4.62993	3	0.293504	11	0	47.106	0.0031812
2	1	0	0	0	0	259.542	0.652162	0.652517	2.7155	3	0.344804	11	0	59.3038	0.00177191
2	1	0	0	0	0	271.944	0.590154	0.590477	0.543372	3	0.363161	11	0	71.7054	0.000320848
2	1	0	0	0	0	284.345	0.528146	0.528389	-0.00416167	3	0.365365	11	0	0.1	-2.19898e-06
2	0	0	0	0	0	296.747	0.466138	0.466465	-0.0550711	3	0.364896	11	0	12.5016	-2.56887e-05
2	1	0	0	0	1	309.026	0.495292	0.495627	0.0603668	4	0.365198	11	0	8.801	2.99194e-05
2	1	0	0	0	1	321.427	0.5573	0.557559	0.207243	4	0.366482	11	0	21.2026	0.00011555
2	1	0	0	0	1	333.829	0.619308	0.619523	1.41418	4	0.374647	11	0	33.6042	0.000876117
2	1	0	1	0	1	346.231	0.681316	0.681677	4.30797	4	0.408896	11	0	46.006	0.00293664
2	1	0	0	0	1	358.429	0.657663	0.657943	2.98041	4	0.461933	11	0	58.2038	0.00196094
2	1	0	0	0	1	370.83	0.595655	0.59605	0.654892	4	0.482738	11	0	70.6054	0.000390348
2	1	0	0	0	1	383.232	0.533647	0.533952	0.0099705	4	0.485559	11	0	83.007	5.32377e-06
2	0	0	0	0	1	395.633	0.471639	0.471876	-0.0513939	4	0.485152	11	0	11.5016	-2.42516e-05
2	1	0	0	0	0	407.912	0.489791	0.490046	0.0571392	5	0.48533	11	0	7.701	2.80008e-05
2	1	0	0	0	0	420.314	0.551799	0.552167	0.173029	5	0.486467	11	0	20.1026	9.55409e-05
2	1	0	0	0	0	432.716	0.613807	0.614153	1.22769	5	0.493356	11	0	32.5042	0.000753992
2	1	0	0	0	0	445.117	0.675815	0.676055	4.00845	5	0.524449	11	0	44.9058	0.00270993
2	1	0	1	0	0	457.315	0.663164	0.663424	3.25833	5	0.578665	11	0	57.1036	0.00216165
2	1	0	1	0	0	469.717	0.601156	0.601418	0.77987	5	0.602058	11	0	69.5052	0.000469028
2	1	0	1	0	0	482.118	0.539148	0.539452	0.024743	5	0.605637	11	0	81.9068	1.33477e-05
2	0	0	1	0	0	494.52	0.47714	0.477469	-0.0526764	5	0.605306	11	0	10.5014	-2.51514e-05
2	1	0	1	0	1	506.799	0.48429	0.484593	0.0581143	6	0.605359	11	0	6.6008	2.81618e-05
2	1	0	1	0	1	519.2	0.546298	0.546586	0.147053	6	0.606383	11	0	19.0024	8.03772e-05
2	1	0	1	0	1	531.602	0.608307	0.608614	1.05639	6	0.612171	11	0	31.404	0.000642935
2	1	0	1	0	1	544.004	0.670314	0.670659	3.71681	6	0.640243	11	0	43.8056	0.00249272
2	1	0	0	0	1	556.201	0.668664	0.668886	3.54282	6	0.694936	11	0	56.0034	0.00236974
2	1	0	0	0	1	568.603	0.606656	0.606918	0.929406	6	0.721019	11	0	68.405	0.000564073
2	1	0	0	0	1	581.005	0.544648	0.544953	0.0449696	6	0.72547	11	0	80.8066	2.45063e-05
2	0	0	0	0	1	593.406	0.48264	0.482952	-0.0484773	6	0.725229	11	0	9.4012	-2.34122e-05
2	1	0	0	0	0	605.685	0.47879	0.479094	0.0564248	7	0.725168	11	0	5.5006	2.70328e-05
2	1	0	0	0	0	618.087	0.540798	0.541108	0.12145	7	0.726103	11	0	17.9022	6.57175e-05
2	1	0	0	0	0	630.488	0.602806	0.603104	0.896957	7	0.730927	11	0	30.3038	0.000540958
2	1	0	0	0	0	642.89	0.664814	0.665091	3.41224	7	0.756043	11	0	42.7054	0.00226945
2	1	0	1	0	0	655.088	0.674165	0.674529	3.82555	7	0.810353	11	0	54.9032	0.00258045
2	1	0	1	0	0	667.489	0.612157	0.612445	1.08179	7	0.839284	11	0	67.3048	0.000662539
2	1	0	1	0	0	679.891	0.550149	0.550366	0.0720302	7	0.844721	11	0	79.7064	3.9643e-05
2	0	0	1	0	0	692.293	0.488141	0.488552	-0.0445275	7	0.844592	11	0	8.3012	-2.1754e-05
2	1	0	0	0	1	704.572	0.473289	0.473555	0.0545463	8	0.844417	11	0	4.4006	2.58307e-05
2	1	0	0	0	1	716.973	0.535297	0.53557	0.104904	8	0.845284	11	0	16.8022	5.61837e-05
2	1	0	0	0	1	729.375	0.597305	0.597627	0.751152	8	0.849293	11	0	29.2038	0.000448909
2	1	0	0	0	1	741.777	0.659313	0.659541	3.12192	8	0.871589	11	0	41.6054	0.00205903
2	1	0	1	0	1	753.974	0.679666	0.679924	4.13721	8	0.925136	11	0	53.8032	0.00281299
2	1	0	1	0	1	766.376	0.617658	0.617996	1.26191	8	0.957212	11	0	66.2048	0.000779855
2	1	0	1	0	1	778.778	0.55565	0.555928	0.101356	8	0.963858	11	0	78.6064	5.63469e-05
[...]
2	1	0	1	0	1	976.55	0.566651	0.566979	0.184671	10	1.20007	11	0	76.406	0.000104705
2	0	0	1	0	1	988.952	0.504643	0.504916	-0.0366665	10	1.20047	11	0	5.1006	-1.85135e-05
2	1	0	1	0	0	1001.23	0.456787	0.457118	0.0504419	11	1.19999	11	0	1.1	2.30579e-05
2	1	0	1	0	0	1013.63	0.518795	0.51915	0.0766892	11	1.20073	11	0	13.5017	3.98132e-05
2	1	0	1	0	0	1026.03	0.580803	0.581036	0.425023	11	1.20304	11	0	25.9033	0.000246954
2	1	0	1	0	0	1038.44	0.642811	0.643133	2.30169	11	1.21795	11	0	38.3049	0.0014803
2	1	0	1	0	0	1050.63	0.696168	0.696436	5.0683	11	1.26466	11	0	50.5028	0.00352974
2	1	0	1	0	0	1063.04	0.63416	0.634471	1.85301	11	1.30636	11	0	62.9044	0.00117568
2	1	0	1	0	0	1075.44	0.572152	0.572433	0.235298	11	1.31733	11	0	75.306	0.000134692
2	0	0	1	0	0	1087.84	0.510144	0.510538	-0.0334246	11	1.31797	11	0	4.0006	-1.70645e-05
2	1	0	1	0	1	1100.12	0.451286	0.4515	0.0292046	12	1.3174	11	0	0.000000000000000E+000	1.31859e-05
2	1	0	1	0	1	1112.52	0.513294	0.513647	0.0723747	12	1.31811	11	0	12.4016	3.71751e-05
2	1	0	1	0	1	1124.92	0.575302	0.575557	0.348474	12	1.32004	11	0	24.8032	0.000200566
2	1	0	1	0	1	1137.32	0.63731	0.637603	2.04712	12	1.33288	11	0	37.2048	0.00130525
2	1	0	1	0	1	1149.72	0.699318	0.699578	5.23707	12	1.37709	11	0	49.6064	0.00366374
2	1	0	0	0	1	1161.92	0.639661	0.640028	2.06713	12	1.4209	11	0	61.8042	0.00132302
2	1	0	0	0	1	1174.32	0.577653	0.577868	0.298139	12	1.43354	11	0	74.2058	0.000172285
2	0	0	0	0	1	1186.72	0.515645	0.515967	-0.0242814	12	1.43449	11	0	3.0004	-1.25284e-05
2	0	0	0	0	1	1199.13	0.453637	0.453868	-0.0559134	12	1.43393	11	0	15.402	-2.53773e-05
2	1	0	0	0	0	1211.41	0.507794	0.508118	0.0650192	13	1.43452	11	0	11.3014	3.30374e-05
2	1	0	0	0	0	1223.81	0.569802	0.570045	0.287349	13	1.43616	11	0	23.703	0.000163802
2	1	0	0	0	0	1236.21	0.63181	0.632187	1.80281	13	1.44711	11	0	36.1046	0.00113971
2	1	0	0	0	0	1248.61	0.693818	0.694154	4.88518	13	1.48756	11	0	48.5062	0.00339107
2	1	0	1	0	0	1260.81	0.645161	0.645402	2.27708	13	1.53414	11	0	60.704	0.00146963
2	1	0	1	0	0	1273.21	0.583153	0.583425	0.369272	13	1.54857	11	0	73.1056	0.000215442
2	0	0	1	0	0	1285.61	0.521145	0.521376	-0.0174827	13	1.54988	11	0	2.0002	-9.11508e-06
2	0	0	1	0	0	1298.01	0.459137	0.459437	-0.0568737	13	1.54935	11	0	14.4018	-2.61298e-05
2	1	0	1	0	1	1310.29	0.502293	0.502582	0.0602284	14	1.54981	11	0	10.2012	3.02697e-05
2	1	0	1	0	1	1322.69	0.564301	0.564568	0.236471	14	1.55121	11	0	22.6028	0.000133504
2	1	0	1	0	1	1335.1	0.626309	0.626672	1.57787	14	1.56049	11	0	35.0044	0.000988809
2	1	0	1	0	1	1347.5	0.688317	0.688569	4.56202	14	1.5974	11	0	47.406	0.00314127
2	1	0	1	0	1	1359.69	0.650662	0.65097	2.51347	14	1.64633	11	0	59.6039	0.00163619
2	1	0	1	0	1	1372.1	0.588654	0.588949	0.455864	14	1.6628	11	0	72.0055	0.000268481
2	1	0	1	0	1	1384.5	0.526646	0.526852	-0.00987432	14	1.66456	11	0	1.0001	-5.2023e-06
2	0	0	1	0	1	1396.9	0.464638	0.464943	-0.0527269	14	1.66407	11	0	13.4018	-2.4515e-05
2	1	0	1	0	0	1409.18	0.496792	0.497082	0.0599969	15	1.6644	11	0	9.1012	2.98233e-05
2	1	0	1	0	0	1421.58	0.5588	0.559129	0.193799	15	1.66562	11	0	21.5028	0.000108359
2	1	0	1	0	0	1433.98	0.620808	0.621093	1.36675	15	1.67343	11	0	33.9044	0.000848879
2	1	0	1	0	0	1446.38	0.682816	0.683078	4.23182	15	1.7069	11	0	46.306	0.00289066
2	1	0	0	0	0	1458.58	0.656163	0.65643	2.74808	15	1.75741	11	0	58.5038	0.00180392
2	1	0	0	0	0	1470.98	0.594155	0.594418	0.550168	15	1.77598	11	0	70.9054	0.00032703
2	0	0	0	0	0	1483.38	0.532147	0.532459	0.000141314	15	1.77824	11	0	0.000000000000000E+000	7.52441e-08
2	0	0	0	0	0	1495.79	0.470139	0.47043	-0.0529425	15	1.7778	11	0	12.3016	-2.49057e-05
2	0	0	1	0	0	1499.81	0.450011	0.450274	-0.0555623	15	1.77757	11	0	16.3244	-2.50182e-05