Folder: SI_for_publications/ACS_Catal_2026/Figures_Na_K/main_figures/data/EC/20240126_2-102_Add_Na (part 5)

File: 20240125_2-102_007_preconditioning_elctrode3_01_CVA_C01.mpt
EC-Lab ASCII FILE
Nb header lines : 66

Cyclic Voltammetry Advanced

Run on channel : 1 (SN 66412)
User :
CE vs. WE compliance from -10 V to 10 V
Electrode connection : standard
Potential control : Ewe
Ewe ctrl range : min = -1.00 V, max = 1.00 V
Safety Limits :
	Do not start on E overload
Acquisition started on : 01/26/2024 17:08:35.119
Loaded Setting File :  C:\Users\NakamuraT\Documents\EC-Lab\Data\Yatsuzuka\20240126_2-102_Add_Na\20240125_2-102_001_preconditioning_elctrode1.mps
Saved on :
	File : 20240125_2-102_007_preconditioning_elctrode3_01_CVA_C01.mpr
	Directory : C:\Users\NakamuraT\Documents\EC-Lab\Data\Yatsuzuka\20240126_2-102_Add_Na\
	Host : 192.109.209.100
Device : SP-150e (SN .003411)
Address : 192.109.209.236
EC-Lab for windows v11.50 (software)
Internet server v11.50 (firmware)
Command interpretor v11.50 (firmware)
Electrode material :
Initial state :
Electrolyte :
Comments :
Electrode surface area : 0.001 cm2
Characteristic mass : 0.001 g
Equivalent Weight : 0.000 g/eq.
Density : 0.000 g/cm3
Volume (V) : 0.001 cm3
Cycle Definition : Charge/Discharge alternance
Ei (V)              0.350
vs.                 Ref
ti (h:m:s)          0:00:10.0000
dti (s)             1.0000
dE/dt               10.000
dE/dt unit          mV/s
E1 (V)              0.450
vs.                 Ref
t1 (h:m:s)          0:00:0.0000
dt1 (s)             0.1000
Step percent        50
N                   10
E range min (V)     -1.000
E range max (V)     1.000
I Range             Auto
I Range min         Unset
I Range max         Unset
I Range init        Unset
Bandwidth           5
E2 (V)              0.350
vs.                 Ref
t2 (h:m:s)          0:00:0.0000
dt2 (s)             0.1000
nc cycles           9
nr                  1
Reverse Scan        0
Ef (V)              0.000
vs.                 Eoc
tf (h:m:s)          0:00:0.0000
dtf (s)             0.1000

mode	ox/red	error	control changes	Ns changes	counter inc.	time/s	control/V	Ewe/V	<I>/mA	cycle number	(Q-Qo)/C	I Range	Ns	step time/s	P/W
2	1	0	1	0	0	0.000000000000000E+000	0.350023	0.350339	9.72919	1	0.0000000E+000	10	0	0.000000000000000E+000	0.00340851
2	1	0	1	0	0	11.1827	0.3618	0.362111	0.317959	1	0.00828698	12	0	10.1827	0.000115136
2	1	0	1	0	0	12.8829	0.378803	0.379085	0.327211	1	0.00884198	12	0	11.8829	0.000124041
2	1	0	1	0	0	14.5833	0.395806	0.396069	0.325315	1	0.00939623	12	0	13.5833	0.000128847
2	1	0	1	0	0	16.2835	0.412809	0.41309	0.32034	1	0.00994129	12	0	15.2835	0.000132329
2	1	0	1	0	0	17.9839	0.429812	0.430107	0.310944	1	0.0104737	12	0	16.9839	0.000133739
2	1	0	1	0	0	19.6841	0.446815	0.447088	0.301611	1	0.0109932	12	0	18.6841	0.000134847
2	0	0	1	0	0	21.3581	0.436413	0.436669	-0.0781033	1	0.0110896	13	0	0.8652	-3.41053e-05
2	0	0	1	0	0	23.0883	0.41911	0.419344	-0.132937	1	0.0109015	12	0	2.5954	-5.57463e-05
2	0	0	1	0	0	24.7887	0.402107	0.402342	-0.162731	1	0.0106505	12	0	4.2958	-6.54733e-05
2	0	0	1	0	0	26.4889	0.385104	0.385291	-0.186592	1	0.010352	12	0	5.996	-7.1892e-05
2	0	0	1	0	0	28.1893	0.368101	0.368331	-0.210207	1	0.0100103	12	0	7.6964	-7.74255e-05
2	0	0	1	0	0	29.8895	0.351098	0.351374	-0.235536	1	0.00962708	12	0	9.3966	-8.27612e-05
2	1	0	1	0	1	31.5249	0.3653	0.365578	0.24043	2	0.00982266	12	0	1.2502	8.78959e-05
2	1	0	1	0	1	33.2251	0.382303	0.382574	0.239661	2	0.0102373	12	0	2.9504	9.1688e-05
2	1	0	1	0	1	34.9255	0.399306	0.399619	0.23204	2	0.0106427	12	0	4.6508	9.27274e-05
2	1	0	1	0	1	36.6257	0.416309	0.416608	0.227203	2	0.0110358	12	0	6.351	9.46546e-05
2	1	0	1	0	1	38.3261	0.433312	0.433563	0.225429	2	0.0114201	12	0	8.0514	9.77376e-05
2	1	0	1	0	1	39.9926	0.44999	0.450281	0.221056	2	0.0117956	12	0	9.7179	9.95373e-05
2	0	0	1	0	1	41.7303	0.432612	0.432867	-0.126806	2	0.011674	12	0	1.4102	-5.489e-05
2	0	0	1	0	1	43.4307	0.415609	0.415848	-0.157294	2	0.0114283	12	0	3.1106	-6.54106e-05
2	0	0	1	0	1	45.1309	0.398606	0.398834	-0.18151	2	0.0111407	12	0	4.8108	-7.23923e-05
2	0	0	1	0	1	46.8313	0.381603	0.381829	-0.203099	2	0.010817	12	0	6.5112	-7.75491e-05
2	0	0	1	0	1	48.5315	0.3646	0.364884	-0.225129	2	0.0104567	12	0	8.2114	-8.21462e-05
2	0	0	1	0	0	50.1669	0.351798	0.352063	-0.0341506	3	0.0100958	12	0	9.8468	-1.20232e-05
2	1	0	1	0	0	51.8671	0.368801	0.369088	0.234522	3	0.0104073	12	0	1.6002	8.65592e-05
2	1	0	1	0	0	53.5675	0.385804	0.386052	0.230424	3	0.0108001	12	0	3.3006	8.89555e-05
2	1	0	1	0	0	55.2677	0.402807	0.403042	0.219766	3	0.0111794	12	0	5.0008	8.85748e-05
2	1	0	1	0	0	56.9681	0.41981	0.420107	0.210168	3	0.0115444	12	0	6.7012	8.82932e-05
2	1	0	1	0	0	58.6683	0.436813	0.437125	0.204478	3	0.0118987	12	0	8.4014	8.93826e-05
2	0	0	1	0	0	60.3123	0.446715	0.446964	-0.0454521	3	0.012186	12	0	0.05	-2.03155e-05
2	0	0	1	0	0	62.0125	0.429712	0.429995	-0.14229	3	0.0119844	12	0	1.7502	-6.11839e-05
2	0	0	1	0	0	63.7129	0.412709	0.413008	-0.163623	3	0.0117203	12	0	3.4506	-6.75776e-05
2	0	0	1	0	0	65.4131	0.395706	0.395973	-0.18334	3	0.0114206	12	0	5.1508	-7.25977e-05
2	0	0	1	0	0	67.1135	0.378703	0.37898	-0.204213	3	0.0110882	12	0	6.8512	-7.73925e-05
2	0	0	1	0	0	68.8137	0.3617	0.361978	-0.227074	3	0.010721	12	0	8.5514	-8.21957e-05
2	1	0	1	0	1	70.4591	0.354798	0.355063	0.124575	4	0.0104436	12	0	0.2	4.42322e-05
2	1	0	1	0	1	72.1593	0.371801	0.372019	0.227307	4	0.0107993	12	0	1.9002	8.45626e-05
2	1	0	1	0	1	73.8597	0.388804	0.389051	0.221495	4	0.0111798	12	0	3.6006	8.61728e-05
2	1	0	1	0	1	75.5599	0.405807	0.406067	0.212419	4	0.0115444	12	0	5.3008	8.62565e-05
2	1	0	1	0	1	77.2603	0.42281	0.423079	0.203413	4	0.0118938	12	0	7.0012	8.60597e-05
2	1	0	1	0	1	78.9606	0.439813	0.44004	0.196803	4	0.0122321	12	0	8.7015	8.66013e-05
2	0	0	1	0	1	80.6045	0.443714	0.443942	-0.108176	4	0.012419	12	0	0.4	-4.8024e-05
2	0	0	1	0	1	82.3049	0.426711	0.426973	-0.152211	4	0.0121891	12	0	2.1004	-6.49899e-05
2	0	0	1	0	1	84.0051	0.409708	0.409914	-0.171887	4	0.011915	12	0	3.8006	-7.04591e-05
2	0	0	1	0	1	85.7055	0.392705	0.392959	-0.187062	4	0.0116083	12	0	5.501	-7.35075e-05
2	0	0	1	0	1	87.4057	0.375702	0.375937	-0.206192	4	0.0112699	12	0	7.2012	-7.75153e-05
2	0	0	1	0	1	89.1061	0.358699	0.358937	-0.228112	4	0.0108975	12	0	8.9016	-8.1878e-05
2	1	0	1	0	0	90.7513	0.357799	0.358057	0.183348	5	0.010738	12	0	0.5	6.56491e-05
2	1	0	1	0	0	92.4517	0.374802	0.375049	0.21967	5	0.0111075	12	0	2.2004	8.23869e-05
2	1	0	1	0	0	94.1519	0.391805	0.392054	0.21203	5	0.0114783	12	0	3.9006	8.3127e-05
2	1	0	1	0	0	95.8523	0.408808	0.40908	0.203708	5	0.011832	12	0	5.601	8.3333e-05
2	1	0	1	0	0	97.5525	0.425811	0.426057	0.197381	5	0.0121704	12	0	7.3012	8.40953e-05
2	1	0	1	0	0	99.2529	0.442814	0.443069	0.193489	5	0.0124977	12	0	9.0016	8.57288e-05
2	0	0	1	0	0	100.897	0.440714	0.440954	-0.12768	5	0.0125819	12	0	0.7	-5.6301e-05
2	0	0	1	0	0	102.597	0.423711	0.423961	-0.15846	5	0.0123375	12	0	2.4004	-6.7181e-05
2	0	0	1	0	0	104.297	0.406708	0.406953	-0.177122	5	0.012056	12	0	4.1006	-7.20804e-05
2	0	0	1	0	0	105.998	0.389705	0.38997	-0.194108	5	0.0117443	12	0	5.801	-7.56964e-05
2	0	0	1	0	0	107.698	0.372701	0.372932	-0.211388	5	0.0114013	12	0	7.5013	-7.88333e-05
2	0	0	1	0	0	109.398	0.355699	0.35595	-0.230405	5	0.0110244	12	0	9.2016	-8.20126e-05
2	1	0	1	0	1	111.043	0.360799	0.361092	0.210075	6	0.0109937	12	0	0.8	7.58566e-05
2	1	0	1	0	1	112.744	0.377803	0.378046	0.218646	6	0.0113653	12	0	2.5004	8.26582e-05
2	1	0	1	0	1	114.444	0.394806	0.395035	0.206807	6	0.011728	12	0	4.2007	8.16961e-05
[...]
2	1	0	1	0	0	139.837	0.448815	0.449076	0.184261	7	0.0129183	12	0	9.6016	8.27472e-05
2	0	0	1	0	0	141.481	0.434713	0.434992	-0.140896	7	0.0128009	12	0	1.3002	-6.12884e-05
2	0	0	1	0	0	143.181	0.41771	0.418002	-0.161553	7	0.0125396	12	0	3.0004	-6.75294e-05
2	0	0	1	0	0	144.882	0.400707	0.40101	-0.180048	7	0.0122474	12	0	4.7008	-7.22009e-05
2	0	0	1	0	0	146.582	0.383703	0.383958	-0.198608	7	0.0119266	12	0	6.4011	-7.62571e-05
2	0	0	1	0	0	148.282	0.3667	0.366921	-0.218747	7	0.0115748	12	0	8.1014	-8.0263e-05
2	0	0	1	0	1	149.951	0.350023	0.350243	-0.22882	7	0.0111964	12	0	9.7695	-8.01426e-05
2	1	0	1	0	1	151.628	0.366801	0.367056	0.216245	8	0.0114258	12	0	1.4002	7.93741e-05
2	1	0	1	0	1	153.328	0.383803	0.38406	0.211063	8	0.0117916	12	0	3.1005	8.10608e-05
2	1	0	1	0	1	155.029	0.400807	0.401046	0.200869	8	0.0121407	12	0	4.8008	8.05579e-05
2	1	0	1	0	1	156.729	0.41781	0.418105	0.192137	8	0.012472	12	0	6.5012	8.03333e-05
2	1	0	1	0	1	158.429	0.434813	0.43506	0.185096	8	0.0127882	12	0	8.2014	8.05281e-05
2	1	0	1	0	1	160.073	0.448715	0.448933	0.0375568	8	0.0130747	12	0	9.8454	1.68605e-05
2	0	0	1	0	1	161.773	0.431712	0.431971	-0.148169	8	0.0128782	12	0	1.6002	-6.40045e-05
2	0	0	1	0	1	163.474	0.414709	0.415037	-0.167751	8	0.0126107	12	0	3.3006	-6.96229e-05
2	0	0	1	0	1	165.174	0.397706	0.397948	-0.184877	8	0.0123139	12	0	5.0008	-7.35715e-05
2	0	0	1	0	1	166.874	0.380703	0.380985	-0.202494	8	0.0119886	12	0	6.7012	-7.71474e-05
2	0	0	1	0	1	168.575	0.3637	0.363975	-0.222176	8	0.0116321	12	0	8.4014	-8.08667e-05
2	1	0	1	0	0	170.22	0.352798	0.353019	0.0370767	9	0.0112991	12	0	0.000000000000000E+000	1.30888e-05
2	1	0	1	0	0	171.92	0.369801	0.370076	0.218015	9	0.0116135	12	0	1.7002	8.0682e-05
2	1	0	1	0	0	173.621	0.386804	0.387074	0.209912	9	0.0119747	12	0	3.4006	8.12514e-05
2	1	0	1	0	0	175.321	0.403807	0.40409	0.199048	9	0.0123178	12	0	5.1008	8.04335e-05
2	1	0	1	0	0	177.021	0.42081	0.421079	0.188784	9	0.0126434	12	0	6.8012	7.94931e-05
2	1	0	1	0	0	178.721	0.437813	0.43808	0.181333	9	0.0129544	12	0	8.5014	7.94384e-05
2	0	0	1	0	0	180.365	0.445715	0.445929	-0.0919582	9	0.0131708	12	0	0.2	-4.10068e-05
2	0	0	1	0	0	182.066	0.428711	0.428956	-0.154355	9	0.0129407	12	0	1.9003	-6.62117e-05
2	0	0	1	0	0	183.766	0.411708	0.412	-0.171402	9	0.0126679	12	0	3.6006	-7.06175e-05
2	0	0	1	0	0	185.466	0.394705	0.394947	-0.187466	9	0.0123665	12	0	5.301	-7.40393e-05
2	0	0	1	0	0	187.167	0.377702	0.377916	-0.204584	9	0.0120368	12	0	7.0012	-7.73157e-05
2	0	0	1	0	0	188.867	0.360699	0.360953	-0.222525	9	0.0116753	12	0	8.7016	-8.03212e-05
2	1	0	1	0	1	190.512	0.355799	0.35606	0.150816	10	0.0114401	12	0	0.3	5.36994e-05
2	1	0	1	0	1	192.213	0.372802	0.373074	0.217171	10	0.0117874	12	0	2.0004	8.10209e-05
2	1	0	1	0	1	193.913	0.389805	0.390061	0.206078	10	0.0121437	12	0	3.7006	8.0383e-05
2	1	0	1	0	1	195.613	0.406808	0.407079	0.194114	10	0.0124814	12	0	5.401	7.90197e-05
2	1	0	1	0	1	197.313	0.423811	0.424058	0.183912	10	0.0128018	12	0	7.1012	7.79892e-05
2	1	0	1	0	1	199.014	0.440814	0.441055	0.175649	10	0.0131084	12	0	8.8016	7.7471e-05
2	0	0	1	0	1	200.658	0.442714	0.442943	-0.125273	10	0.0132359	12	0	0.5	-5.54888e-05
2	0	0	1	0	1	202.358	0.425711	0.426006	-0.156052	10	0.0129921	12	0	2.2004	-6.6479e-05
2	0	0	1	0	1	204.058	0.408708	0.408967	-0.17237	10	0.0127142	12	0	3.9006	-7.04934e-05
2	0	0	1	0	1	205.759	0.391705	0.391917	-0.186307	10	0.0124087	12	0	5.601	-7.30167e-05
2	0	0	1	0	1	207.459	0.374702	0.374949	-0.20295	10	0.0120747	12	0	7.3012	-7.6096e-05
2	0	0	1	0	1	209.159	0.357699	0.357945	-0.222881	10	0.0117086	12	0	9.0016	-7.97793e-05
2	0	0	0	0	1	209.927	0.350023	0.350167	-0.237611	10	0.0115321	12	0	9.7691	-8.32034e-05

File: 20240125_2-102_007_preconditioning_elctrode3_02_PEIS_C01.mpt
EC-Lab ASCII FILE
Nb header lines : 63

Potentio Electrochemical Impedance Spectroscopy

Run on channel : 1 (SN 66412)
User :
CE vs. WE compliance from -10 V to 10 V
Electrode connection : standard
Potential control : Ewe
Ewe ctrl range : min = -1.00 V, max = 1.00 V
Safety Limits :
	Do not start on E overload
Acquisition started on : 01/26/2024 17:08:35.119
Loaded Setting File :  C:\Users\NakamuraT\Documents\EC-Lab\Data\Yatsuzuka\20240126_2-102_Add_Na\20240125_2-102_001_preconditioning_elctrode1.mps
Saved on :
	File : 20240125_2-102_007_preconditioning_elctrode3_02_PEIS_C01.mpr
	Directory : C:\Users\NakamuraT\Documents\EC-Lab\Data\Yatsuzuka\20240126_2-102_Add_Na\
	Host : 192.109.209.100
Device : SP-150e (SN .003411)
Address : 192.109.209.236
EC-Lab for windows v11.50 (software)
Internet server v11.50 (firmware)
Command interpretor v11.50 (firmware)
Electrode material :
Initial state :
Electrolyte :
Comments :
Electrode surface area : 0.001 cm2
Characteristic mass : 0.001 g
Equivalent Weight : 0.000 g/eq.
Density : 0.000 g/cm3
Volume (V) : 0.001 cm3
Cycle Definition : Charge/Discharge alternance
Mode                Single sine
E (V)               0.4000
vs.                 Eoc
tE (h:m:s)          0:00:0.0000
record              0
dI                  0.000
unit dI             mA
dt (s)              0.000
fi                  500.000
unit fi             kHz
ff                  1.000
unit ff             Hz
Nd                  6
Points              per decade
spacing             Logarithmic
Va (mV)             10.0
pw                  0.10
Na                  2
corr                0
E range min (V)     -1.000
E range max (V)     1.000
I Range             Auto
Bandwidth           5
nc cycles           0
goto Ns'            0
nr cycles           0
inc. cycle          0

freq/Hz	Re(Z)/Ohm	-Im(Z)/Ohm	|Z|/Ohm	Phase(Z)/deg	time/s	<Ewe>/V	<I>/mA	Cs/uF	Cp/uF	cycle number	I Range	|Ewe|/V	|I|/A	Ns	(Q-Qo)/mA.h	Re(Y)/Ohm-1	Im(Y)/Ohm-1	|Y|/Ohm-1	Phase(Y)/deg	Re(C)/nF	Im(C)/nF	|C|/nF	Phase(C)/deg	Re(M)	Im(M)	|M|	Phase(M)/deg	Re(Permittivity)	Im(Permittivity)	|Permittivity|	Phase(Permittivity)/deg	Re(Resistivity)/Ohm.cm	Im(Resistivity)/Ohm.cm	|Resistivity|/Ohm.cm	Phase(Resistivity)/deg	Re(Conductivity)/mS/cm	Im(Conductivity)/mS/cm	|Conductivity|/mS/cm	Phase(Conductivity)/deg	Tan(Delta)	Loss Angle(Delta)/deg	dq/mA.h
500019	24.4527	-3.88316	24.7591	9.02341	211.007	0.374288	0.0413581	-0.0819687	-0.00201628	1	10	0.0106492	0.000430113	0	4.93538e-05	0.0398894	-0.00633457	0.0403893	-9.02341	-2.01628	12.6967	12.8558	-99.0234	0.0000000E+000	0.0000000E+000	0.0000000E+000	99.0234	0.0000000E+000	0.0000000E+000	0.0000000E+000	-99.0234	0.0000000E+000	0.0000000E+000	0.0000000E+000	9.02341	0.0000000E+000	0.0000000E+000	0.0000000E+000	-9.02341	6.2971	80.9766	4.93538e-05
231063	14.2573	-2.20644	14.4271	8.79721	211.852	0.374172	-0.00795805	-0.312175	-0.00730176	1	10	0.0109693	0.000760329	0	5.10004e-05	0.0684988	-0.0106008	0.0693142	-8.79721	-7.30176	47.1817	47.7433	-98.7972	0.0000000E+000	0.0000000E+000	0.0000000E+000	98.7972	0.0000000E+000	0.0000000E+000	0.0000000E+000	-98.7972	0.0000000E+000	0.0000000E+000	0.0000000E+000	8.79721	0.0000000E+000	0.0000000E+000	0.0000000E+000	-8.79721	6.46169	81.2028	-4.22742e-07
106786	13.1036	-0.740436	13.1245	3.23413	212.833	0.374189	-0.0121041	-2.01288	-0.00640656	1	10	0.0107032	0.00081551	0	4.88446e-05	0.0760718	-0.00429853	0.0761932	-3.23413	-6.40656	113.378	113.559	-93.2341	0.0000000E+000	0.0000000E+000	0.0000000E+000	93.2341	0.0000000E+000	0.0000000E+000	0.0000000E+000	-93.2341	0.0000000E+000	0.0000000E+000	0.0000000E+000	3.23413	0.0000000E+000	0.0000000E+000	0.0000000E+000	-3.23413	17.6972	86.7659	-4.89295e-07
49352.4	12.9543	-0.303265	12.9578	1.34107	213.678	0.374192	-0.0114734	-10.6338	-0.00582466	1	10	0.0104847	0.000809143	0	4.6756e-05	0.0771523	-0.00180617	0.0771734	-1.34107	-5.82465	248.806	248.874	-91.3411	0.0000000E+000	0.0000000E+000	0.0000000E+000	91.3411	0.0000000E+000	0.0000000E+000	0.0000000E+000	-91.3411	0.0000000E+000	0.0000000E+000	0.0000000E+000	1.34107	0.0000000E+000	0.0000000E+000	0.0000000E+000	-1.34107	42.716	88.6589	-9.54618e-07
22806.6	12.9079	-0.13526	12.9086	0.600373	214.523	0.374194	-0.0130576	-51.5929	-0.00566462	1	10	0.0103376	0.000800831	0	4.57328e-05	0.0774634	-0.000811728	0.0774676	-0.600373	-5.66462	540.576	540.606	-90.6004	0.0000000E+000	0.0000000E+000	0.0000000E+000	90.6004	0.0000000E+000	0.0000000E+000	0.0000000E+000	-90.6004	0.0000000E+000	0.0000000E+000	0.0000000E+000	0.600373	0.0000000E+000	0.0000000E+000	0.0000000E+000	-0.600373	95.4302	89.3996	-1.52063e-07
10540.4	12.9078	-0.051362	12.9079	0.227987	215.367	0.374185	-0.0118597	-293.983	-0.00465474	1	10	0.0100956	0.000782129	0	4.32789e-05	0.0774714	-0.00030827	0.077472	-0.227987	-4.65478	1169.78	1169.79	-90.228	0.0000000E+000	0.0000000E+000	0.0000000E+000	90.228	0.0000000E+000	0.0000000E+000	0.0000000E+000	-90.228	0.0000000E+000	0.0000000E+000	0.0000000E+000	0.227987	0.0000000E+000	0.0000000E+000	0.0000000E+000	-0.227987	251.31	89.772	-9.27347e-07
4871.56	12.9007	-0.0232754	12.9007	0.103373	216.192	0.374218	-0.011229	-1403.64	-0.00456903	1	10	0.0109087	0.000845592	0	4.04852e-05	0.0775151	-0.000139853	0.0775153	-0.103373	-4.56892	2532.44	2532.44	-90.1034	0.0000000E+000	0.0000000E+000	0.0000000E+000	90.1034	0.0000000E+000	0.0000000E+000	0.0000000E+000	-90.1034	0.0000000E+000	0.0000000E+000	0.0000000E+000	0.103373	0.0000000E+000	0.0000000E+000	0.0000000E+000	-0.103373	554.261	89.8966	-9.32661e-07
2250.72	12.8992	-0.00536006	12.8992	0.0238083	217.343	0.37422	-0.0119045	-13192.6	-0.00227794	1	10	0.0102562	0.000795102	0	3.72965e-05	0.0775241	-3.22139e-05	0.0775241	-0.0238083	-2.27822	5481.95	5481.95	-90.0238	0.0000000E+000	0.0000000E+000	0.0000000E+000	90.0238	0.0000000E+000	0.0000000E+000	0.0000000E+000	-90.0238	0.0000000E+000	0.0000000E+000	0.0000000E+000	0.0238083	0.0000000E+000	0.0000000E+000	0.0000000E+000	-0.0238083	2406.54	89.9762	-2.04226e-06
1040.33	12.9054	0.00388087	12.9054	-0.0172298	218.273	0.374222	-0.0114193	39420.2	0.00356479	1	10	0.0103033	0.000798373	0	3.43581e-05	0.0774869	2.33016e-05	0.0774869	0.0172298	3.56424	11854.3	11854.3	-89.9828	0.0000000E+000	0.0000000E+000	0.0000000E+000	89.9828	0.0000000E+000	0.0000000E+000	0.0000000E+000	-89.9828	0.0000000E+000	0.0000000E+000	0.0000000E+000	-0.0172298	0.0000000E+000	0.0000000E+000	0.0000000E+000	0.0172298	3325.39	89.9828	-8.51273e-07
480.769	12.9055	0.018125	12.9056	-0.0804681	219.203	0.374214	-0.0120407	18264.4	0.0360253	1	10	0.0103111	0.000798966	0	3.04151e-05	0.0774859	0.000108824	0.077486	0.0804681	36.0249	25651.1	25651.1	-89.9195	0.0000000E+000	0.0000000E+000	0.0000000E+000	89.9195	0.0000000E+000	0.0000000E+000	0.0000000E+000	-89.9195	0.0000000E+000	0.0000000E+000	0.0000000E+000	-0.0804681	0.0000000E+000	0.0000000E+000	0.0000000E+000	0.0804681	712.03	89.9195	-1.94745e-06
222.061	12.9222	0.0462821	12.9223	-0.20521	220.127	0.374214	-0.0123112	15485.8	0.198648	1	10	0.0103266	0.000799135	0	2.74096e-05	0.0773852	0.000277163	0.0773857	0.20521	198.646	55463.4	55463.7	-89.7948	0.0000000E+000	0.0000000E+000	0.0000000E+000	89.7948	0.0000000E+000	0.0000000E+000	0.0000000E+000	-89.7948	0.0000000E+000	0.0000000E+000	0.0000000E+000	-0.20521	0.0000000E+000	0.0000000E+000	0.0000000E+000	0.20521	279.205	89.7948	-1.0088e-06
102.667	12.9156	0.0946893	12.916	-0.42005	221.064	0.374222	-0.0112047	16371.4	0.879905	1	10	0.0103201	0.000799024	0	2.44353e-05	0.0774216	0.000567607	0.0774236	0.42005	879.908	120019	120022	-89.5799	0.0000000E+000	0.0000000E+000	0.0000000E+000	89.5799	0.0000000E+000	0.0000000E+000	0.0000000E+000	-89.5799	0.0000000E+000	0.0000000E+000	0.0000000E+000	-0.42005	0.0000000E+000	0.0000000E+000	0.0000000E+000	0.42005	136.4	89.5799	-1.17317e-06
47.4443	12.9333	0.177552	12.9346	-0.786518	221.975	0.374204	-0.0144757	18893.5	3.56005	1	10	0.010323	0.000798092	0	2.22907e-05	0.0773049	0.00106126	0.0773122	0.786518	3560.07	259324	259349	-89.2135	0.0000000E+000	0.0000000E+000	0.0000000E+000	89.2135	0.0000000E+000	0.0000000E+000	0.0000000E+000	-89.2135	0.0000000E+000	0.0000000E+000	0.0000000E+000	-0.786518	0.0000000E+000	0.0000000E+000	0.0000000E+000	0.786518	72.8428	89.2135	-1.04923e-06
21.9144	12.9334	0.376428	12.9389	-1.66713	222.843	0.374201	-0.0149515	19293.3	16.3298	1	10	0.0103299	0.000798365	0	1.95249e-05	0.0772539	0.00224849	0.0772866	1.66713	16329.7	561061	561298	-88.3329	0.0000000E+000	0.0000000E+000	0.0000000E+000	88.3329	0.0000000E+000	0.0000000E+000	0.0000000E+000	-88.3329	0.0000000E+000	0.0000000E+000	0.0000000E+000	-1.66713	0.0000000E+000	0.0000000E+000	0.0000000E+000	1.66713	34.3582	88.3329	-3.72222e-07
10.1329	12.9402	0.820414	12.9662	-3.62771	224.02	0.37421	0.000132831	19144.8	76.6463	1	11	0.0103315	0.000796799	0	1.03297e-05	0.076969	0.00487986	0.0771236	3.62771	76646.3	1.20893e+06	1.21136e+06	-86.3723	0.0000000E+000	0.0000000E+000	0.0000000E+000	86.3723	0.0000000E+000	0.0000000E+000	0.0000000E+000	-86.3723	0.0000000E+000	0.0000000E+000	0.0000000E+000	-3.62771	0.0000000E+000	0.0000000E+000	0.0000000E+000	3.62771	15.7728	86.3723	-8.8942e-06
4.68375	12.9863	1.77468	13.107	-7.78171	224.87	0.374213	0.00616783	19147.2	351.026	1	11	0.0103358	0.000788573	0	1.51138e-05	0.0755925	0.0103303	0.0762951	7.78171	351026	2.56865e+06	2.59252e+06	-82.2183	0.0000000E+000	0.0000000E+000	0.0000000E+000	82.2183	0.0000000E+000	0.0000000E+000	0.0000000E+000	-82.2183	0.0000000E+000	0.0000000E+000	0.0000000E+000	-7.78171	0.0000000E+000	0.0000000E+000	0.0000000E+000	7.78171	7.31755	82.2183	-7.24508e-07
2.16533	13.1416	3.88266	13.7032	-16.4597	226.583	0.374226	-0.0034674	18930.7	1519.79	1	11	0.010335	0.000754207	0	5.3569e-06	0.0699853	0.020677	0.0729759	16.4597	1.51979e+06	5.14403e+06	5.36384e+06	-73.5403	0.0000000E+000	0.0000000E+000	0.0000000E+000	73.5403	0.0000000E+000	0.0000000E+000	0.0000000E+000	-73.5403	0.0000000E+000	0.0000000E+000	0.0000000E+000	-16.4597	0.0000000E+000	0.0000000E+000	0.0000000E+000	16.4597	3.38469	73.5403	1.55454e-06
1.00006	13.4151	8.04466	15.6423	-30.95	230.192	0.374228	0.00141199	19782.7	5232.4	1	11	0.01034	0.000661028	0	4.14208e-05	0.0548269	0.0328782	0.0639294	30.95	5.2324e+06	8.72541e+06	1.0174e+07	-59.05	0.0000000E+000	0.0000000E+000	0.0000000E+000	59.05	0.0000000E+000	0.0000000E+000	0.0000000E+000	-59.05	0.0000000E+000	0.0000000E+000	0.0000000E+000	-30.95	0.0000000E+000	0.0000000E+000	0.0000000E+000	30.95	1.66757	59.05	1.71362e-05