Folder: SI_for_publications/ACS_Catal_2026/Figures_Na_K/main_figures/data/EC/20240126_2-102_Add_Na (part 3)

File: 20240125_2-102_003_K_elctrode1_C01.mpt
EC-Lab ASCII FILE
Nb header lines : 66

Cyclic Voltammetry Advanced

Run on channel : 1 (SN 66412)
User :
CE vs. WE compliance from -10 V to 10 V
Electrode connection : standard
Potential control : Ewe
Ewe ctrl range : min = -1.00 V, max = 1.00 V
Safety Limits :
	Do not start on E overload
Acquisition started on : 01/26/2024 15:49:54.608
Loaded Setting File :  C:\Users\NakamuraT\Documents\EC-Lab\Data\Yatsuzuka\20240125_2-101_K_new_condition\20240125_2-101_004_reused_solution_30min_wait_elctrode1_C01.mpr
Saved on :
	File : 20240125_2-102_003_K_elctrode1_C01.mpr
	Directory : C:\Users\NakamuraT\Documents\EC-Lab\Data\Yatsuzuka\20240126_2-102_Add_Na\
	Host : 192.109.209.100
Device : SP-150e (SN .003411)
Address : 192.109.209.236
EC-Lab for windows v11.50 (software)
Internet server v11.50 (firmware)
Command interpretor v11.50 (firmware)
Electrode material :
Initial state :
Electrolyte :
Comments :
Electrode surface area : 0.001 cm2
Characteristic mass : 0.001 g
Equivalent Weight : 0.000 g/eq.
Density : 0.000 g/cm3
Volume (V) : 0.001 cm3
Cycle Definition : Charge/Discharge alternance
Ei (V)              0.450
vs.                 Ref
ti (h:m:s)          0:00:10.0000
dti (s)             0.0000
dE/dt               5.000
dE/dt unit          mV/s
E1 (V)              0.700
vs.                 Ref
t1 (h:m:s)          0:00:0.0000
dt1 (s)             0.1000
Step percent        50
N                   10
E range min (V)     -1.000
E range max (V)     1.000
I Range             10 mA
I Range min         Unset
I Range max         Unset
I Range init        Unset
Bandwidth           5
E2 (V)              0.450
vs.                 Ref
t2 (h:m:s)          0:00:0.0000
dt2 (s)             0.1000
nc cycles           14
nr                  1
Reverse Scan        0
Ef (V)              0.000
vs.                 Eoc
tf (h:m:s)          0:00:0.0000
dtf (s)             0.1000

mode	ox/red	error	control changes	Ns changes	counter inc.	time/s	control/V	Ewe/V	<I>/mA	cycle number	(Q-Qo)/C	I Range	Ns	step time/s	P/W
2	1	0	1	0	0	0.000000000000000E+000	0.44994	0.45018	0.0194731	1	0.0000000E+000	11	0	0.000000000000000E+000	8.76642e-06
2	1	0	1	0	0	12.3571	0.511726	0.512033	0.189232	1	0.001823	11	0	12.3021	9.68928e-05
2	1	0	1	0	0	24.7593	0.573737	0.574018	0.622357	1	0.00597625	11	0	24.7043	0.000357244
2	1	0	0	0	0	37.1616	0.635748	0.636009	2.7108	1	0.0244353	11	0	37.1066	0.00172409
2	1	0	1	0	0	49.5638	0.697759	0.698049	6.32158	1	0.079501	11	0	49.5088	0.00441277
2	1	0	1	0	0	61.7739	0.641149	0.641465	2.70399	1	0.134908	11	0	61.7189	0.00173451
2	1	0	1	0	0	74.1761	0.579138	0.579487	0.420348	1	0.152048	11	0	74.1211	0.000243586
2	0	0	0	0	0	86.5784	0.517127	0.517407	-0.0639788	1	0.15318	11	0	4.3008	-3.31031e-05
2	0	0	1	0	0	98.9806	0.455116	0.455426	-0.112611	1	0.152004	11	0	16.703	-5.12859e-05
2	1	0	1	0	1	111.256	0.506275	0.506541	0.11668	2	0.153048	11	0	11.0019	5.91035e-05
2	1	0	1	0	1	123.658	0.568286	0.568584	0.381964	2	0.155463	11	0	23.4041	0.000217178
2	1	0	1	0	1	136.06	0.630297	0.630603	2.20461	2	0.169179	11	0	35.8064	0.00139024
2	1	0	0	0	1	148.463	0.692308	0.692602	5.75553	2	0.217423	11	0	48.2086	0.00398629
2	1	0	1	0	1	160.663	0.64665	0.646956	2.86977	2	0.274374	11	0	60.4087	0.00185662
2	1	0	1	0	1	173.065	0.584639	0.584953	0.479137	2	0.292939	11	0	72.8109	0.000280272
2	0	0	1	0	1	185.467	0.522628	0.522838	-0.0592882	2	0.294371	11	0	3.7008	-3.09981e-05
2	0	0	0	0	1	197.869	0.460617	0.460948	-0.112536	2	0.293234	11	0	16.103	-5.18733e-05
2	1	0	0	0	0	210.145	0.500774	0.501066	0.108699	3	0.293988	11	0	9.9018	5.44652e-05
2	1	0	1	0	0	222.547	0.562785	0.563118	0.296795	3	0.296008	11	0	22.304	0.00016713
2	1	0	0	0	0	234.949	0.624796	0.625077	1.86879	3	0.307139	11	0	34.7062	0.00116814
2	1	0	1	0	0	247.351	0.686807	0.687159	5.30183	3	0.350358	11	0	47.1084	0.0036432
2	1	0	0	0	0	259.552	0.652151	0.652481	3.09272	3	0.409065	11	0	59.3086	0.00201794
2	1	0	1	0	0	271.954	0.59014	0.590439	0.568038	3	0.429664	11	0	71.7108	0.000335392
2	0	0	0	0	0	284.356	0.528129	0.528432	-0.0498175	3	0.43157	11	0	2.8006	-2.63252e-05
2	0	0	1	0	0	296.758	0.466118	0.466386	-0.109424	3	0.430487	11	0	15.2028	-5.10339e-05
2	1	0	1	0	1	309.034	0.495273	0.495602	0.105992	4	0.430987	11	0	8.8016	5.25297e-05
2	1	0	0	0	1	321.436	0.557284	0.557612	0.242442	4	0.43276	11	0	21.2038	0.000135189
2	1	0	1	0	1	333.838	0.619295	0.619534	1.58398	4	0.441877	11	0	33.606	0.000981326
2	1	0	0	0	1	346.24	0.681306	0.681595	4.86935	4	0.480446	11	0	46.0082	0.00331892
2	1	0	1	0	1	358.44	0.657652	0.657945	3.33581	4	0.54018	11	0	58.2084	0.00219478
2	1	0	0	0	1	370.843	0.595641	0.595951	0.674616	4	0.563036	11	0	70.6106	0.000402038
2	0	0	1	0	1	383.245	0.53363	0.53388	-0.0379713	4	0.565522	11	0	2.0004	-2.02721e-05
2	0	0	0	0	1	395.647	0.471619	0.47196	-0.104994	4	0.564506	11	0	14.4026	-4.95531e-05
2	1	0	0	0	0	407.922	0.489772	0.490077	0.103832	5	0.564766	11	0	7.7014	5.08858e-05
2	1	0	1	0	0	420.325	0.551783	0.552075	0.201076	5	0.566371	11	0	20.1036	0.000111009
2	1	0	0	0	0	432.727	0.613794	0.614116	1.33572	5	0.573866	11	0	32.5058	0.000820287
2	1	0	1	0	0	445.129	0.675805	0.676187	4.47226	5	0.608307	11	0	44.908	0.00302408
2	1	0	0	0	0	457.329	0.663153	0.663438	3.59197	5	0.668587	11	0	57.1082	0.00238305
2	1	0	1	0	0	469.731	0.601142	0.601443	0.798473	5	0.693884	11	0	69.5104	0.000480236
2	0	0	0	0	0	482.134	0.539131	0.539486	-0.0222372	5	0.697069	11	0	1.0002	-1.19967e-05
2	0	0	1	0	0	494.536	0.47712	0.477446	-0.103036	5	0.696128	11	0	13.4024	-4.91943e-05
2	1	0	1	0	1	506.811	0.484271	0.484516	0.0999262	6	0.696157	11	0	6.6012	4.84159e-05
2	1	0	0	0	1	519.213	0.546282	0.546598	0.173356	6	0.697641	11	0	19.0034	9.47559e-05
2	1	0	1	0	1	531.616	0.608293	0.608603	1.12266	6	0.703808	11	0	31.4056	0.000683256
2	1	0	0	0	1	544.018	0.670304	0.670575	4.08864	6	0.734367	11	0	43.8078	0.00274174
2	1	0	1	0	1	556.218	0.668654	0.668975	3.85451	6	0.794485	11	0	56.008	0.00257857
2	1	0	0	0	1	568.62	0.606643	0.606971	0.930346	6	0.822297	11	0	68.4102	0.000564693
2	0	0	1	0	1	581.022	0.544632	0.54499	-0.00493293	6	0.826296	11	0	0.1	-2.6884e-06
2	0	0	0	0	1	593.425	0.482621	0.482954	-0.100366	6	0.825448	11	0	12.5022	-4.8472e-05
2	1	0	0	0	0	605.7	0.47877	0.47906	0.0981407	7	0.825256	11	0	5.501	4.70153e-05
2	1	0	1	0	0	618.102	0.540781	0.541158	0.150248	7	0.826657	11	0	17.9032	8.1308e-05
2	1	0	0	0	0	630.504	0.602792	0.60307	0.934189	7	0.831749	11	0	30.3054	0.000563381
2	1	0	1	0	0	642.907	0.664803	0.665108	3.72867	7	0.858771	11	0	42.7076	0.00247997
2	1	0	0	0	0	655.107	0.674155	0.674435	4.17302	7	0.918407	11	0	54.9078	0.00281443
2	1	0	1	0	0	667.509	0.612144	0.61252	1.09524	7	0.949261	11	0	67.31	0.000670859
2	1	0	0	0	0	679.911	0.550133	0.550479	0.0203552	7	0.954253	11	0	79.7122	1.12051e-05
2	0	0	1	0	0	692.313	0.488122	0.48846	-0.0948584	7	0.953512	11	0	11.5021	-4.63345e-05
2	1	0	1	0	1	704.589	0.473269	0.473502	0.0987639	8	0.953103	11	0	4.4008	4.67649e-05
2	1	0	0	0	1	716.991	0.53528	0.535614	0.136376	8	0.954441	11	0	16.803	7.30448e-05
2	1	0	1	0	1	729.393	0.597291	0.597585	0.774108	8	0.958657	11	0	29.2052	0.000462596
2	1	0	0	0	1	741.795	0.659302	0.659617	3.38508	8	0.982381	11	0	41.6074	0.00223286
2	1	0	1	0	1	753.996	0.679656	0.679991	4.5044	8	1.04087	11	0	53.8076	0.00306295
2	1	0	0	0	1	766.398	0.617645	0.617958	1.28396	8	1.07507	11	0	66.2098	0.000793432
2	1	0	1	0	1	778.8	0.555634	0.555927	0.0470244	8	1.08126	11	0	78.612	2.61421e-05
[...]
2	1	0	1	0	1	976.578	0.566636	0.566945	0.127807	10	1.33083	11	0	76.4116	7.24595e-05
2	0	0	0	0	1	988.98	0.504625	0.504976	-0.0850866	10	1.33059	11	0	8.4016	-4.29667e-05
2	1	0	0	0	0	1001.26	0.456766	0.457121	0.0887112	11	1.32957	11	0	1.1002	4.05518e-05
2	1	0	1	0	0	1013.66	0.518777	0.519113	0.108446	11	1.3308	11	0	13.5024	5.62959e-05
2	1	0	0	0	0	1026.06	0.580789	0.581135	0.428378	11	1.33333	11	0	25.9046	0.000248945
2	1	0	1	0	0	1038.46	0.642799	0.64312	2.43611	11	1.34878	11	0	38.3068	0.00156671
2	1	0	0	0	0	1050.66	0.696159	0.69643	5.4903	11	1.39923	11	0	50.507	0.00382361
2	1	0	1	0	0	1063.06	0.634148	0.634436	1.89859	11	1.44359	11	0	62.9092	0.00120453
2	1	0	0	0	0	1075.47	0.572137	0.572471	0.177789	11	1.4542	11	0	75.3114	0.000101779
2	0	0	1	0	0	1087.87	0.510126	0.510431	-0.0805729	11	1.45419	11	0	7.4014	-4.11269e-05
2	1	0	1	0	1	1100.14	0.451265	0.451611	0.0195539	12	1.453	11	0	0.000000000000000E+000	8.83077e-06
2	1	0	0	0	1	1112.55	0.513277	0.513618	0.105776	12	1.45419	11	0	12.4022	5.43282e-05
2	1	0	1	0	1	1124.95	0.575287	0.575587	0.354922	12	1.45639	11	0	24.8044	0.000204288
2	1	0	0	0	1	1137.35	0.637299	0.637588	2.15194	12	1.46958	11	0	37.2066	0.00137205
2	1	0	1	0	1	1149.75	0.69931	0.69964	5.71976	12	1.51729	11	0	49.6088	0.00400177
2	1	0	0	0	1	1161.95	0.639649	0.640021	2.14091	12	1.56432	11	0	61.809	0.00137023
2	1	0	1	0	1	1174.36	0.577638	0.578034	0.24258	12	1.57683	11	0	74.2112	0.000140219
2	0	0	0	0	1	1186.76	0.515627	0.515851	-0.0736771	12	1.57713	11	0	6.4012	-3.80064e-05
2	0	0	1	0	1	1199.16	0.453616	0.453904	-0.108762	12	1.57595	11	0	18.8034	-4.93677e-05
2	1	0	1	0	0	1211.43	0.507776	0.50806	0.103453	13	1.57693	11	0	11.302	5.25605e-05
2	1	0	0	0	0	1223.84	0.569787	0.570082	0.293251	13	1.57886	11	0	23.7042	0.000167177
2	1	0	1	0	0	1236.24	0.631798	0.632066	1.88575	13	1.59007	11	0	36.1064	0.00119192
2	1	0	0	0	0	1248.64	0.693809	0.694132	5.33049	13	1.63358	11	0	48.5086	0.00370007
2	1	0	1	0	0	1260.84	0.64515	0.645442	2.39033	13	1.68375	11	0	60.7088	0.00154282
2	1	0	0	0	0	1273.24	0.583139	0.583485	0.314285	13	1.69824	11	0	73.111	0.00018338
2	0	0	1	0	0	1285.65	0.521128	0.521404	-0.0683978	13	1.69888	11	0	5.301	-3.56629e-05
2	0	0	0	0	0	1298.05	0.459117	0.459362	-0.106564	13	1.69774	11	0	17.7032	-4.89516e-05
2	1	0	0	0	1	1310.32	0.502275	0.502523	0.100147	14	1.69849	11	0	10.2018	5.0326e-05
2	1	0	1	0	1	1322.73	0.564286	0.564641	0.246273	14	1.70023	11	0	22.604	0.000139056
2	1	0	0	0	1	1335.13	0.626297	0.626613	1.64008	14	1.70968	11	0	35.0062	0.0010277
2	1	0	1	0	1	1347.53	0.688308	0.688595	4.97127	14	1.74929	11	0	47.4084	0.00342319
2	1	0	0	0	1	1359.73	0.650651	0.650867	2.66529	14	1.8023	11	0	59.6086	0.00173475
2	1	0	1	0	1	1372.13	0.58864	0.588941	0.407398	14	1.81912	11	0	72.0108	0.000239934
2	0	0	0	0	1	1384.53	0.526629	0.526926	-0.0608214	14	1.82023	11	0	4.2008	-3.20484e-05
2	0	0	1	0	1	1396.94	0.464618	0.465012	-0.10571	14	1.81914	11	0	16.603	-4.91562e-05
2	1	0	1	0	0	1409.21	0.496774	0.497056	0.0965756	15	1.81966	11	0	9.1016	4.80035e-05
2	1	0	0	0	0	1421.61	0.558785	0.559161	0.206873	15	1.82125	11	0	21.5038	0.000115676
2	1	0	1	0	0	1434.02	0.620796	0.621094	1.41169	15	1.82919	11	0	33.906	0.00087679
2	1	0	0	0	0	1446.42	0.682807	0.683085	4.61799	15	1.86503	11	0	46.3082	0.00315448
2	1	0	1	0	0	1458.62	0.656152	0.656519	2.94378	15	1.9201	11	0	58.5084	0.00193265
2	1	0	0	0	0	1471.02	0.594141	0.594418	0.510587	15	1.93935	11	0	70.9106	0.000303502
2	0	0	1	0	0	1483.42	0.53213	0.532374	-0.0488195	15	1.94098	11	0	3.2006	-2.59902e-05
2	0	0	0	0	0	1495.83	0.470119	0.470465	-0.101848	15	1.93995	11	0	15.6028	-4.79157e-05
2	0	0	1	0	0	1499.84	0.44999	0.450429	-0.112268	15	1.93952	11	0	19.6216	-5.05688e-05

File: 20240125_2-102_004_K_elctrode2_C02.mpt
EC-Lab ASCII FILE
Nb header lines : 66

Cyclic Voltammetry Advanced

Run on channel : 2 (SN 66414)
User :
CE vs. WE compliance from -10 V to 10 V
Electrode connection : standard
Potential control : Ewe
Ewe ctrl range : min = -1.00 V, max = 1.00 V
Safety Limits :
	Do not start on E overload
Acquisition started on : 01/26/2024 15:53:38.332
Loaded Setting File :  C:\Users\NakamuraT\Documents\EC-Lab\Data\Yatsuzuka\20240126_2-102_Add_Na\20240125_2-102_003_K_elctrode1_C01.mpr
Saved on :
	File : 20240125_2-102_004_K_elctrode2_C02.mpr
	Directory : C:\Users\NakamuraT\Documents\EC-Lab\Data\Yatsuzuka\20240126_2-102_Add_Na\
	Host : 192.109.209.100
Device : SP-150e (SN .003411)
Address : 192.109.209.236
EC-Lab for windows v11.50 (software)
Internet server v11.50 (firmware)
Command interpretor v11.50 (firmware)
Electrode material :
Initial state :
Electrolyte :
Comments :
Electrode surface area : 0.001 cm2
Characteristic mass : 0.001 g
Equivalent Weight : 0.000 g/eq.
Density : 0.000 g/cm3
Volume (V) : 0.001 cm3
Cycle Definition : Charge/Discharge alternance
Ei (V)              0.450
vs.                 Ref
ti (h:m:s)          0:00:10.0000
dti (s)             0.0000
dE/dt               5.000
dE/dt unit          mV/s
E1 (V)              0.700
vs.                 Ref
t1 (h:m:s)          0:00:0.0000
dt1 (s)             0.1000
Step percent        50
N                   10
E range min (V)     -1.000
E range max (V)     1.000
I Range             10 mA
I Range min         Unset
I Range max         Unset
I Range init        Unset
Bandwidth           5
E2 (V)              0.450
vs.                 Ref
t2 (h:m:s)          0:00:0.0000
dt2 (s)             0.1000
nc cycles           14
nr                  1
Reverse Scan        0
Ef (V)              0.000
vs.                 Eoc
tf (h:m:s)          0:00:0.0000
dtf (s)             0.1000

mode	ox/red	error	control changes	Ns changes	counter inc.	time/s	control/V	Ewe/V	<I>/mA	cycle number	(Q-Qo)/C	I Range	Ns	step time/s	P/W
2	1	0	1	0	0	0.000000000000000E+000	0.449961	0.450293	0.0044244	1	0.0000000E+000	11	0	0.000000000000000E+000	1.99228e-06
2	1	0	1	0	0	12.2565	0.511244	0.511579	0.156094	1	0.00125581	11	0	12.2015	7.98546e-05
2	1	0	1	0	0	24.5581	0.572752	0.573083	0.813639	1	0.00600072	11	0	24.5031	0.000466283
2	1	0	0	0	0	36.8596	0.63426	0.634576	3.08293	1	0.0283062	11	0	36.8046	0.00195635
2	1	0	0	0	0	49.1612	0.695768	0.696111	6.44568	1	0.0862166	11	0	49.1062	0.00448691
2	1	0	1	0	0	61.269	0.643661	0.643918	3.30409	1	0.147166	11	0	61.214	0.00212756
2	1	0	1	0	0	73.5706	0.582153	0.582424	0.802258	1	0.17078	11	0	73.5156	0.000467254
2	1	0	1	0	0	85.8722	0.520645	0.520952	0.0204704	1	0.1744	11	0	85.8172	1.06641e-05
2	0	0	1	0	0	98.1738	0.459137	0.459392	-0.0573324	1	0.174007	11	0	10.8014	-2.63381e-05
2	1	0	1	0	1	110.353	0.501793	0.502084	0.0842247	2	0.174592	11	0	10.1012	4.22879e-05
2	1	0	1	0	1	122.654	0.563301	0.563595	0.470278	2	0.177134	11	0	22.4028	0.000265046
2	1	0	1	0	1	134.956	0.624809	0.62514	2.39475	2	0.192872	11	0	34.7044	0.00149705
2	1	0	1	0	1	147.258	0.686317	0.686568	5.6567	2	0.241592	11	0	47.006	0.00388371
2	1	0	0	0	1	159.355	0.653162	0.653397	3.64088	2	0.304921	11	0	59.1038	0.00237894
2	1	0	0	0	1	171.657	0.591654	0.591848	0.98829	2	0.331822	11	0	71.4054	0.000584917
2	1	0	0	0	1	183.959	0.530146	0.530406	0.0482901	2	0.336577	11	0	83.707	2.56134e-05
2	0	0	0	0	1	196.26	0.468639	0.46892	-0.0525954	2	0.336308	11	0	9.4012	-2.4663e-05
2	1	0	0	0	0	208.439	0.492292	0.492583	0.0733543	3	0.336607	11	0	8.201	3.61331e-05
2	1	0	0	0	0	220.741	0.553799	0.5542	0.312449	3	0.338394	11	0	20.5026	0.000173159
2	1	0	0	0	0	233.042	0.615307	0.615542	1.89763	3	0.350013	11	0	32.8042	0.00116807
2	1	0	0	0	0	245.344	0.676815	0.677114	4.9967	3	0.391434	11	0	45.1058	0.00338334
2	1	0	1	0	0	257.442	0.662664	0.662932	4.07965	3	0.456494	11	0	57.2036	0.00270453
2	1	0	1	0	0	269.743	0.601156	0.601461	1.24866	3	0.487826	11	0	69.5052	0.000751024
2	1	0	1	0	0	282.045	0.539648	0.539867	0.0942207	3	0.494279	11	0	81.8068	5.08666e-05
2	0	0	1	0	0	294.347	0.47814	0.478406	-0.0515669	3	0.494213	11	0	7.701	-2.46699e-05
2	1	0	1	0	1	306.526	0.48279	0.483187	0.0643699	4	0.494273	11	0	6.3008	3.11027e-05
2	1	0	1	0	1	318.827	0.544298	0.544634	0.217358	4	0.49562	11	0	18.6024	0.00011838
2	1	0	1	0	1	331.129	0.605806	0.606059	1.47784	4	0.504132	11	0	30.904	0.000895659
2	1	0	1	0	1	343.43	0.667314	0.667567	4.39494	4	0.539051	11	0	43.2056	0.00293392
2	1	0	0	0	1	355.528	0.672165	0.672478	4.53503	4	0.603872	11	0	55.3034	0.00304971
2	1	0	0	0	1	367.83	0.610657	0.611023	1.54909	4	0.640042	11	0	67.605	0.000946527
2	1	0	0	0	1	380.131	0.549149	0.549491	0.158196	4	0.648601	11	0	79.9066	8.69272e-05
2	0	0	0	0	1	392.433	0.487641	0.487952	-0.0456886	4	0.648825	11	0	6.0008	-2.22938e-05
2	1	0	0	0	0	404.612	0.473289	0.473608	0.0608937	5	0.648673	11	0	4.4006	2.88397e-05
2	1	0	1	0	0	416.913	0.534797	0.535058	0.157121	5	0.64976	11	0	16.7021	8.40689e-05
2	1	0	1	0	0	429.215	0.596305	0.596564	1.12116	5	0.655909	11	0	29.0037	0.000668843
2	1	0	1	0	0	441.517	0.657813	0.658107	3.82	5	0.68489	11	0	41.3053	0.00251397
2	1	0	0	0	0	453.614	0.681666	0.682019	5.05768	5	0.747702	11	0	53.403	0.00344944
2	1	0	0	0	0	465.916	0.620158	0.620509	1.89524	5	0.78944	11	0	65.7046	0.00117602
2	1	0	0	0	0	478.218	0.55865	0.558992	0.247842	5	0.800637	11	0	78.0062	0.000138542
2	0	0	0	0	0	490.519	0.497142	0.497527	-0.034952	5	0.801278	11	0	4.3004	-1.73895e-05
2	1	0	0	0	1	502.698	0.463788	0.464212	0.0585032	6	0.800938	11	0	2.5002	2.71579e-05
2	1	0	0	0	1	515	0.525296	0.525564	0.11415	6	0.801861	11	0	14.8018	5.99931e-05
2	1	0	0	0	1	527.301	0.586804	0.587146	0.833311	6	0.806265	11	0	27.1034	0.000489275
2	1	0	0	0	1	539.603	0.648312	0.64867	3.27378	6	0.829902	11	0	39.405	0.0021236
2	1	0	1	0	1	551.701	0.691167	0.691499	5.59141	6	0.88869	11	0	51.5028	0.00386645
2	1	0	1	0	1	564.002	0.629659	0.630009	2.2824	6	0.936144	11	0	63.8044	0.00143794
2	1	0	1	0	1	576.304	0.568151	0.568356	0.364158	6	0.950473	11	0	76.106	0.000206971
2	0	0	1	0	1	588.606	0.506643	0.506946	-0.0246862	6	0.951698	11	0	2.5003	-1.25146e-05
2	1	0	1	0	0	600.785	0.454287	0.454557	0.0502017	7	0.951189	11	0	0.6	2.28195e-05
2	1	0	1	0	0	613.086	0.515795	0.516045	0.0940203	7	0.95201	11	0	12.9016	4.85186e-05
2	1	0	1	0	0	625.388	0.577302	0.57765	0.597471	7	0.955158	11	0	25.2032	0.000345129
2	1	0	1	0	0	637.689	0.63881	0.639072	2.76702	7	0.974034	11	0	37.5048	0.00176833
2	1	0	0	0	0	649.922	0.699994	0.700404	6.11095	7	1.02771	11	0	49.7376	0.00428013
2	1	0	0	0	0	662.089	0.639161	0.639357	2.65746	7	1.08005	11	0	61.9042	0.00169906
2	1	0	0	0	0	674.39	0.577653	0.578027	0.518475	7	1.09783	11	0	74.2058	0.000299693
2	1	0	0	0	0	686.692	0.516145	0.516371	-0.00805195	7	1.09987	11	0	0.7002	-4.15779e-06
2	0	0	0	0	0	698.994	0.454637	0.454871	-0.0590803	7	1.09935	11	0	13.0018	-2.68739e-05
2	1	0	0	0	1	711.173	0.506293	0.506638	0.0783631	8	1.09998	11	0	11.0014	3.97017e-05
2	1	0	0	0	1	723.474	0.567801	0.568098	0.425541	8	1.10226	11	0	23.303	0.000241749
2	1	0	0	0	1	735.776	0.629309	0.629633	2.29464	8	1.11705	11	0	35.6046	0.00144478
2	1	0	0	0	1	748.077	0.690817	0.691136	5.55892	8	1.16451	11	0	47.9062	0.00384197
2	1	0	1	0	1	760.175	0.648662	0.649021	3.12091	8	1.22195	11	0	60.004	0.00202554
2	1	0	1	0	1	772.477	0.587154	0.587411	0.717057	8	1.24388	11	0	72.3056	0.000421207
2	1	0	1	0	1	784.778	0.525646	0.525957	0.0155151	8	1.247	11	0	84.6072	8.16025e-06
[...]
2	1	0	0	0	1	980.951	0.544648	0.544919	0.0925775	10	1.53631	11	0	80.8066	5.04472e-05
2	0	0	0	0	1	993.253	0.48314	0.483463	-0.0466136	10	1.53627	11	0	7.501	-2.2536e-05
2	1	0	0	0	0	1005.43	0.47779	0.477995	0.061584	11	1.53621	11	0	5.3006	2.94368e-05
2	1	0	0	0	0	1017.73	0.539298	0.539646	0.153309	11	1.53729	11	0	17.6022	8.27324e-05
2	1	0	0	0	0	1030.03	0.600806	0.601137	1.13819	11	1.54351	11	0	29.9038	0.000684208
2	1	0	0	0	0	1042.34	0.662313	0.662667	3.84908	11	1.57279	11	0	42.2054	0.00255066
2	1	0	1	0	0	1054.43	0.677165	0.677489	4.59204	11	1.63391	11	0	54.3032	0.00311106
2	1	0	1	0	0	1066.74	0.615657	0.61585	1.57389	11	1.6706	11	0	66.6048	0.000969283
2	1	0	1	0	0	1079.04	0.55415	0.55451	0.161359	11	1.67931	11	0	78.9064	8.94754e-05
2	0	0	1	0	0	1091.34	0.492642	0.49286	-0.0404922	11	1.67958	11	0	5.7008	-1.9957e-05
2	1	0	1	0	1	1103.52	0.468288	0.46859	0.0556948	12	1.67933	11	0	3.4004	2.6098e-05
2	1	0	1	0	1	1115.82	0.529796	0.53013	0.116545	12	1.68025	11	0	15.702	6.17839e-05
2	1	0	1	0	1	1128.12	0.591304	0.591616	0.854705	12	1.68477	11	0	28.0036	0.000505657
2	1	0	1	0	1	1140.42	0.652812	0.653168	3.32083	12	1.70887	11	0	40.3052	0.00216906
2	1	0	0	0	1	1152.52	0.686667	0.686935	5.14296	12	1.7672	11	0	52.403	0.00353288
2	1	0	0	0	1	1164.82	0.625159	0.625516	1.92478	12	1.80944	11	0	64.7046	0.00120398
2	1	0	0	0	1	1177.12	0.563651	0.563938	0.254894	12	1.82093	11	0	77.0062	0.000143744
2	0	0	0	0	1	1189.43	0.502143	0.502346	-0.0336673	12	1.82164	11	0	3.9006	-1.69126e-05
2	1	0	0	0	0	1201.6	0.458787	0.459124	0.0554108	13	1.82121	11	0	1.5002	2.54404e-05
2	1	0	0	0	0	1213.91	0.520295	0.520695	0.0926405	13	1.82202	11	0	13.8018	4.82374e-05
2	1	0	0	0	0	1226.21	0.581803	0.582095	0.626067	13	1.82529	11	0	26.1034	0.00036443
2	1	0	0	0	0	1238.51	0.643311	0.643686	2.83327	13	1.84475	11	0	38.405	0.00182374
2	1	0	1	0	0	1250.61	0.696168	0.696462	5.69954	13	1.89841	11	0	50.5028	0.00396951
2	1	0	1	0	0	1262.91	0.63466	0.634917	2.33727	13	1.94669	11	0	62.8044	0.00148397
2	1	0	1	0	0	1275.21	0.573152	0.573423	0.385229	13	1.96153	11	0	75.1059	0.000220899
2	0	0	1	0	0	1287.51	0.511644	0.511906	-0.0216205	13	1.96288	11	0	2.0003	-1.10677e-05
2	0	0	0	0	0	1299.8	0.450211	0.450515	-0.058148	13	1.96233	11	0	14.2868	-2.61966e-05
2	1	0	0	0	1	1311.99	0.510794	0.511148	0.0768878	14	1.96305	11	0	11.9014	3.93011e-05
2	1	0	0	0	1	1324.29	0.572302	0.572657	0.450074	14	1.96543	11	0	24.203	0.000257738
2	1	0	0	0	1	1336.6	0.63381	0.634121	2.36241	14	1.9808	11	0	36.5046	0.00149806
2	1	0	0	0	1	1348.9	0.695318	0.695579	5.62851	14	2.02919	11	0	48.8062	0.00391507
2	1	0	1	0	1	1360.99	0.644161	0.644483	2.75523	14	2.08205	11	0	60.904	0.0017757
2	1	0	1	0	1	1373.3	0.582653	0.582901	0.551904	14	2.1006	11	0	73.2056	0.000321706
2	1	0	1	0	1	1385.6	0.521145	0.521346	-0.00375375	14	2.10281	11	0	0.2	-1.957e-06
2	0	0	1	0	1	1397.9	0.459637	0.45992	-0.0570727	14	2.10234	11	0	12.5016	-2.62489e-05
2	1	0	1	0	0	1410.08	0.501293	0.501582	0.0672516	15	2.10281	11	0	10.0012	3.37322e-05
2	1	0	1	0	0	1422.38	0.562801	0.563143	0.316245	15	2.10458	11	0	22.3028	0.000178091
2	1	0	1	0	0	1434.68	0.624309	0.6246	1.93727	15	2.11646	11	0	34.6044	0.00121002
2	1	0	1	0	0	1446.98	0.685817	0.686106	5.07316	15	2.15854	11	0	46.906	0.00348072
2	1	0	0	0	0	1459.08	0.653662	0.653998	3.22959	15	2.21579	11	0	59.0038	0.00211215
2	1	0	0	0	0	1471.38	0.592154	0.592417	0.766417	15	2.23869	11	0	71.3054	0.000454038
2	1	0	0	0	0	1483.68	0.530646	0.530974	0.0222893	15	2.2421	11	0	83.607	1.1835e-05
2	0	0	0	0	0	1495.99	0.469139	0.469472	-0.0528243	15	2.24174	11	0	10.6014	-2.47995e-05
2	0	0	1	0	0	1499.81	0.450011	0.450274	-0.0733624	15	2.24153	11	0	14.4242	-3.30331e-05