Folder: SI_for_publications/ACS_Catal_2026/Figures_Na_K/main_figures/data/EC/20240126_2-102_Add_Na (part 9)

File: 20240201_2-102_006_K_elctrode6_C02.mpt
EC-Lab ASCII FILE
Nb header lines : 66

Cyclic Voltammetry Advanced

Run on channel : 2 (SN 66414)
User :
CE vs. WE compliance from -10 V to 10 V
Electrode connection : standard
Potential control : Ewe
Ewe ctrl range : min = -1.00 V, max = 1.00 V
Safety Limits :
	Do not start on E overload
Acquisition started on : 02/01/2024 14:47:58.407
Loaded Setting File :  C:\Users\NakamuraT\Documents\EC-Lab\Data\Yatsuzuka\20240126_2-102_Add_Na\20240125_2-102_010_K_elctrode4.mps
Saved on :
	File : 20240201_2-102_006_K_elctrode6_C02.mpr
	Directory : C:\Users\NakamuraT\Documents\EC-Lab\Data\Yatsuzuka\20240126_2-102_Add_Na\
	Host : 192.109.209.100
Device : SP-150e (SN .003411)
Address : 192.109.209.236
EC-Lab for windows v11.50 (software)
Internet server v11.50 (firmware)
Command interpretor v11.50 (firmware)
Electrode material :
Initial state :
Electrolyte :
Comments :
Electrode surface area : 0.001 cm2
Characteristic mass : 0.001 g
Equivalent Weight : 0.000 g/eq.
Density : 0.000 g/cm3
Volume (V) : 0.001 cm3
Cycle Definition : Charge/Discharge alternance
Ei (V)              0.450
vs.                 Ref
ti (h:m:s)          0:00:10.0000
dti (s)             0.0000
dE/dt               5.000
dE/dt unit          mV/s
E1 (V)              0.700
vs.                 Ref
t1 (h:m:s)          0:00:0.0000
dt1 (s)             0.1000
Step percent        50
N                   10
E range min (V)     -1.000
E range max (V)     1.000
I Range             10 mA
I Range min         Unset
I Range max         Unset
I Range init        Unset
Bandwidth           5
E2 (V)              0.450
vs.                 Ref
t2 (h:m:s)          0:00:0.0000
dt2 (s)             0.1000
nc cycles           14
nr                  1
Reverse Scan        0
Ef (V)              0.000
vs.                 Eoc
tf (h:m:s)          0:00:0.0000
dtf (s)             0.1000

mode	ox/red	error	control changes	Ns changes	counter inc.	time/s	control/V	Ewe/V	<I>/mA	cycle number	(Q-Qo)/C	I Range	Ns	step time/s	P/W
2	1	0	1	0	0	0.000000000000000E+000	0.44995	0.450228	0.0105997	1	0.0000000E+000	11	0	0.000000000000000E+000	4.77228e-06
2	1	0	1	0	0	12.3566	0.511733	0.512032	0.165037	1	0.00163398	11	0	12.3016	8.45045e-05
2	1	0	0	0	0	24.7584	0.573742	0.574025	0.473009	1	0.00498711	11	0	24.7034	0.000271519
2	1	0	0	0	0	37.16	0.63575	0.636015	2.01595	1	0.0186495	11	0	37.105	0.00128217
2	1	0	1	0	0	49.5618	0.697759	0.698016	4.9053	1	0.0606781	11	0	49.5068	0.00342398
2	1	0	0	0	0	61.7716	0.641151	0.641395	1.99491	1	0.103026	11	0	61.7166	0.00127952
2	1	0	1	0	0	74.1734	0.579143	0.579371	0.267008	1	0.115137	11	0	74.1184	0.000154697
2	0	0	1	0	0	86.575	0.517134	0.517344	-0.0621013	1	0.115666	11	0	5.4008	-3.21277e-05
2	0	0	0	0	0	98.9768	0.455125	0.455401	-0.101765	1	0.114591	11	0	17.8026	-4.6344e-05
2	1	0	0	0	1	111.253	0.506282	0.506538	0.103094	2	0.115545	11	0	10.9014	5.22209e-05
2	1	0	1	0	1	123.655	0.568291	0.568494	0.273932	2	0.117451	11	0	23.3032	0.000155729
2	1	0	1	0	1	136.057	0.630299	0.630501	1.59201	2	0.12714	11	0	35.7049	0.00100376
2	1	0	0	0	1	148.459	0.692308	0.692529	4.44122	2	0.163558	11	0	48.1066	0.00307567
2	1	0	1	0	1	160.658	0.646652	0.646972	2.11118	2	0.207042	11	0	60.3064	0.00136588
2	1	0	0	0	1	173.06	0.584643	0.584901	0.298563	2	0.220026	11	0	72.7082	0.00017463
2	0	0	0	0	1	185.462	0.522635	0.522886	-0.0578805	2	0.220721	11	0	4.9006	-3.02649e-05
2	0	0	1	0	1	197.864	0.460626	0.460875	-0.100973	2	0.219679	11	0	17.3024	-4.65359e-05
2	1	0	0	0	0	210.14	0.500782	0.501078	0.0968496	3	0.220377	11	0	9.8014	4.85292e-05
2	1	0	0	0	0	222.542	0.56279	0.563069	0.215595	3	0.222006	11	0	22.203	0.000121395
2	1	0	1	0	0	234.944	0.624799	0.625022	1.33042	3	0.229793	11	0	34.6048	0.000831545
2	1	0	1	0	0	247.345	0.686807	0.687052	4.06621	3	0.262032	11	0	47.0064	0.0027937
2	1	0	1	0	0	259.545	0.652152	0.652425	2.29233	3	0.306744	11	0	59.2063	0.00149557
2	1	0	1	0	0	271.947	0.590144	0.590368	0.359024	3	0.321078	11	0	71.608	0.000211956
2	0	0	0	0	0	284.349	0.528135	0.528362	-0.0527273	3	0.322086	11	0	4.1006	-2.78591e-05
2	0	0	0	0	0	296.75	0.466127	0.466414	-0.0982455	3	0.321086	11	0	16.5022	-4.58231e-05
2	1	0	1	0	1	309.027	0.495281	0.495522	0.0931867	4	0.321553	11	0	8.8012	4.6176e-05
2	1	0	1	0	1	321.429	0.557289	0.557527	0.181652	4	0.323017	11	0	21.2028	0.000101276
2	1	0	0	0	1	333.831	0.619298	0.619548	1.12038	4	0.329389	11	0	33.6046	0.000694127
2	1	0	1	0	1	346.232	0.681307	0.681561	3.76656	4	0.358312	11	0	46.0064	0.00256714
2	1	0	0	0	1	358.432	0.657653	0.657875	2.50198	4	0.404632	11	0	58.2062	0.00164599
2	1	0	0	0	1	370.834	0.595645	0.595826	0.432651	4	0.420959	11	0	70.6078	0.000257785
2	0	0	1	0	1	383.236	0.533636	0.533862	-0.0435816	4	0.42235	11	0	3.2004	-2.32665e-05
2	0	0	1	0	1	395.637	0.471627	0.471871	-0.0962333	4	0.421398	11	0	15.6021	-4.54096e-05
2	1	0	0	0	0	407.914	0.48978	0.490069	0.0927421	5	0.421648	11	0	7.701	4.545e-05
2	1	0	1	0	0	420.316	0.551789	0.552014	0.155232	5	0.422998	11	0	20.1028	8.56901e-05
2	1	0	1	0	0	432.717	0.613797	0.614093	0.936168	5	0.428232	11	0	32.5044	0.000574895
2	1	0	0	0	0	445.119	0.675806	0.676052	3.44689	5	0.453872	11	0	44.9062	0.00233028
2	1	0	1	0	0	457.319	0.663154	0.663406	2.70021	5	0.500551	11	0	57.106	0.00179134
2	1	0	0	0	0	469.721	0.601146	0.601397	0.526341	5	0.518871	11	0	69.5078	0.00031654
2	0	0	0	0	0	482.122	0.539137	0.539396	-0.0338224	5	0.520755	11	0	2.3003	-1.82437e-05
2	0	0	1	0	0	494.524	0.477128	0.47735	-0.091074	5	0.519859	11	0	14.7021	-4.34742e-05
2	1	0	1	0	1	506.801	0.484279	0.484472	0.0906654	6	0.5199	11	0	6.6008	4.39248e-05
2	1	0	0	0	1	519.203	0.546288	0.546533	0.133976	6	0.521172	11	0	19.0026	7.32221e-05
2	1	0	0	0	1	531.604	0.608297	0.608553	0.773855	6	0.525471	11	0	31.4042	0.000470932
2	1	0	1	0	1	544.006	0.670305	0.670531	3.11346	6	0.547909	11	0	43.806	0.00208767
2	1	0	0	0	1	556.206	0.668655	0.668891	2.94573	6	0.594487	11	0	56.0058	0.00197037
2	1	0	1	0	1	568.608	0.606646	0.606877	0.625656	6	0.614923	11	0	68.4076	0.000379696
2	0	0	1	0	1	581.009	0.544638	0.544923	-0.0211105	6	0.617365	11	0	1.3002	-1.15036e-05
2	0	0	0	0	1	593.411	0.482629	0.482878	-0.0906551	6	0.616537	11	0	13.702	-4.37754e-05
2	1	0	1	0	0	605.688	0.478779	0.478998	0.0924154	7	0.616376	11	0	5.5008	4.42668e-05
2	1	0	1	0	0	618.089	0.540787	0.540992	0.120746	7	0.617592	11	0	17.9024	6.53226e-05
2	1	0	0	0	0	630.491	0.602796	0.603068	0.641738	7	0.621174	11	0	30.3042	0.000387012
2	1	0	0	0	0	642.893	0.664804	0.665019	2.82165	7	0.640853	11	0	42.7058	0.00187645
2	1	0	1	0	0	655.093	0.674156	0.674432	3.19377	7	0.687035	11	0	54.9056	0.00215398
2	1	0	0	0	0	667.494	0.612147	0.612399	0.737672	7	0.70975	11	0	67.3074	0.000451749
2	0	0	1	0	0	679.896	0.550139	0.550395	-0.00821412	7	0.71287	11	0	0.3002	-4.52101e-06
2	0	0	1	0	0	692.298	0.48813	0.488366	-0.0879771	7	0.712115	11	0	12.7018	-4.2965e-05
2	1	0	0	0	1	704.575	0.473278	0.473496	0.0891047	8	0.711756	11	0	4.4006	4.21907e-05
2	1	0	0	0	1	716.976	0.535286	0.535542	0.111968	8	0.712933	11	0	16.8022	5.99634e-05
2	1	0	1	0	1	729.378	0.597295	0.59754	0.528446	8	0.715932	11	0	29.204	0.000315768
2	1	0	0	0	1	741.78	0.659304	0.659567	2.53158	8	0.733013	11	0	41.6058	0.00166974
2	1	0	1	0	1	753.98	0.679656	0.679873	3.45965	8	0.778106	11	0	53.8056	0.00235212
2	1	0	1	0	1	766.381	0.617648	0.617908	0.877347	8	0.803379	11	0	66.2072	0.00054212
2	1	0	0	0	1	778.783	0.555639	0.555933	0.00930241	8	0.80731	11	0	78.609	5.17152e-06
[...]
2	1	0	0	0	1	976.557	0.566641	0.566914	0.0610538	10	0.99309	11	0	76.4086	3.46123e-05
2	0	0	1	0	1	988.958	0.504632	0.504845	-0.0794881	10	0.992658	11	0	9.7014	-4.01291e-05
2	1	0	1	0	0	1001.24	0.456776	0.457024	0.0864265	11	0.991737	11	0	1.1001	3.9499e-05
2	1	0	0	0	0	1013.64	0.518784	0.518964	0.0937649	11	0.992852	11	0	13.5018	4.86607e-05
2	1	0	1	0	0	1026.04	0.580793	0.581036	0.296358	11	0.994755	11	0	25.9036	0.000172195
2	1	0	1	0	0	1038.44	0.642801	0.643053	1.76301	11	1.00553	11	0	38.3052	0.00113371
2	1	0	0	0	0	1050.64	0.696159	0.696415	4.28103	11	1.04397	11	0	50.505	0.00298137
2	1	0	1	0	0	1063.04	0.63415	0.634416	1.34276	11	1.07739	11	0	62.9068	0.000851867
2	1	0	0	0	0	1075.44	0.572142	0.572414	0.0933939	11	1.08442	11	0	75.3086	5.346e-05
2	0	0	0	0	0	1087.85	0.510133	0.510434	-0.0744856	11	1.08415	11	0	8.7012	-3.802e-05
2	0	0	1	0	1	1100.12	0.451275	0.451526	0.0153748	12	1.08307	11	0	0.000000000000000E+000	6.9421e-06
2	1	0	1	0	1	1112.52	0.513283	0.513516	0.0906933	12	1.08415	11	0	12.4016	4.65724e-05
2	1	0	0	0	1	1124.93	0.575292	0.575578	0.245052	12	1.08584	11	0	24.8034	0.000141047
2	1	0	1	0	1	1137.33	0.637301	0.637508	1.54149	12	1.09497	11	0	37.2051	0.000982715
2	1	0	1	0	1	1149.73	0.699309	0.699565	4.45399	12	1.13107	11	0	49.6068	0.00311585
2	1	0	0	0	1	1161.93	0.639651	0.639834	1.53592	12	1.16671	11	0	61.8066	0.000982733
2	1	0	1	0	1	1174.33	0.577642	0.577944	0.132882	12	1.17512	11	0	74.2084	7.67983e-05
2	0	0	1	0	1	1186.73	0.515634	0.515864	-0.0695979	12	1.17504	11	0	7.701	-3.59031e-05
2	0	0	0	0	1	1199.13	0.453625	0.453859	-0.0986173	12	1.17396	11	0	20.1028	-4.47583e-05
2	1	0	1	0	0	1211.41	0.507783	0.507936	0.0885638	13	1.17486	11	0	11.3016	4.49847e-05
2	1	0	1	0	0	1223.81	0.569791	0.570115	0.209546	13	1.17639	11	0	23.7032	0.000119465
2	1	0	0	0	0	1236.21	0.6318	0.632092	1.33493	13	1.1841	11	0	36.105	0.000843801
2	1	0	0	0	0	1248.62	0.693808	0.693991	4.14497	13	1.21679	11	0	48.5066	0.00287657
2	1	0	1	0	0	1260.82	0.645152	0.645409	1.74071	13	1.25524	11	0	60.7064	0.00112347
2	1	0	0	0	0	1273.22	0.583143	0.583382	0.183768	13	1.26521	11	0	73.1082	0.000107207
2	0	0	1	0	0	1285.62	0.521134	0.521345	-0.0642205	13	1.26537	11	0	6.601	-3.3481e-05
2	0	0	1	0	0	1298.02	0.459126	0.459414	-0.0980065	13	1.26433	11	0	19.0026	-4.50256e-05
2	1	0	0	0	1	1310.3	0.502282	0.502522	0.0883317	14	1.26502	11	0	10.2014	4.43886e-05
2	1	0	0	0	1	1322.7	0.56429	0.564542	0.178939	14	1.26642	11	0	22.603	0.000101019
2	1	0	1	0	1	1335.1	0.626299	0.626572	1.14804	14	1.27291	11	0	35.0048	0.000719332
2	1	0	1	0	1	1347.5	0.688307	0.688528	3.8337	14	1.30241	11	0	47.4065	0.00263961
2	1	0	1	0	1	1359.7	0.650652	0.650912	1.94877	14	1.34303	11	0	59.6064	0.00126847
2	1	0	1	0	1	1372.1	0.588644	0.58886	0.243432	14	1.35465	11	0	72.008	0.000143348
2	0	0	0	0	1	1384.51	0.526635	0.526907	-0.0615734	14	1.35509	11	0	5.6008	-3.24434e-05
2	0	0	0	0	1	1396.91	0.464627	0.464858	-0.0963365	14	1.35409	11	0	18.0024	-4.47828e-05
2	1	0	1	0	0	1409.18	0.496781	0.496979	0.0889936	15	1.35457	11	0	9.1012	4.42279e-05
2	1	0	0	0	0	1421.59	0.55879	0.559015	0.156148	15	1.35588	11	0	21.503	8.72889e-05
2	1	0	0	0	0	1433.99	0.620798	0.621041	0.973581	15	1.36131	11	0	33.9046	0.000604634
2	1	0	1	0	0	1446.39	0.682807	0.683061	3.52386	15	1.3877	11	0	46.3064	0.00240701
2	1	0	0	0	0	1458.59	0.656153	0.65639	2.15291	15	1.42959	11	0	58.5062	0.00141315
2	1	0	1	0	0	1470.99	0.594144	0.594443	0.311374	15	1.4429	11	0	70.9079	0.000185094
2	0	0	1	0	0	1483.39	0.532136	0.532392	-0.0536018	15	1.44369	11	0	4.5006	-2.85372e-05
2	0	0	0	0	0	1495.79	0.470127	0.470354	-0.093721	15	1.44272	11	0	16.9024	-4.40821e-05
2	0	0	1	0	0	1499.81	0.45	0.450209	-0.0938681	15	1.44233	11	0	20.9228	-4.22602e-05

File: 20240201_2-102_013_preconditioning_elctrode5_01_CVA_C01.mpt
EC-Lab ASCII FILE
Nb header lines : 66

Cyclic Voltammetry Advanced

Run on channel : 1 (SN 66412)
User :
CE vs. WE compliance from -10 V to 10 V
Electrode connection : standard
Potential control : Ewe
Ewe ctrl range : min = -1.00 V, max = 1.00 V
Safety Limits :
	Do not start on E overload
Acquisition started on : 02/01/2024 14:47:09.385
Loaded Setting File :  C:\Users\NakamuraT\Documents\EC-Lab\Data\Yatsuzuka\20240126_2-102_Add_Na\20240201_2-102_014_preconditioning_elctrode6.mps
Saved on :
	File : 20240201_2-102_013_preconditioning_elctrode5_01_CVA_C01.mpr
	Directory : C:\Users\NakamuraT\Documents\EC-Lab\Data\Yatsuzuka\20240126_2-102_Add_Na\
	Host : 192.109.209.100
Device : SP-150e (SN .003411)
Address : 192.109.209.236
EC-Lab for windows v11.50 (software)
Internet server v11.50 (firmware)
Command interpretor v11.50 (firmware)
Electrode material :
Initial state :
Electrolyte :
Comments :
Electrode surface area : 0.001 cm2
Characteristic mass : 0.001 g
Equivalent Weight : 0.000 g/eq.
Density : 0.000 g/cm3
Volume (V) : 0.001 cm3
Cycle Definition : Charge/Discharge alternance
Ei (V)              0.350
vs.                 Ref
ti (h:m:s)          0:00:10.0000
dti (s)             1.0000
dE/dt               10.000
dE/dt unit          mV/s
E1 (V)              0.450
vs.                 Ref
t1 (h:m:s)          0:00:0.0000
dt1 (s)             0.1000
Step percent        50
N                   10
E range min (V)     -1.000
E range max (V)     1.000
I Range             Auto
I Range min         Unset
I Range max         Unset
I Range init        Unset
Bandwidth           5
E2 (V)              0.350
vs.                 Ref
t2 (h:m:s)          0:00:0.0000
dt2 (s)             0.1000
nc cycles           9
nr                  1
Reverse Scan        0
Ef (V)              0.000
vs.                 Eoc
tf (h:m:s)          0:00:0.0000
dtf (s)             0.1000

mode	ox/red	error	control changes	Ns changes	counter inc.	time/s	control/V	Ewe/V	<I>/mA	cycle number	(Q-Qo)/C	I Range	Ns	step time/s	P/W
2	1	0	1	0	0	0.000000000000000E+000	0.349989	0.350422	9.02351	1	0.0000000E+000	10	0	0.000000000000000E+000	0.00316204
2	1	0	1	0	0	11.1759	0.361699	0.362006	0.258523	1	0.00627938	12	0	10.1759	9.35871e-05
2	1	0	1	0	0	12.8736	0.378677	0.378999	0.271043	1	0.00672977	12	0	11.8736	0.000102725
2	1	0	1	0	0	14.5713	0.395654	0.396019	0.269344	1	0.00718711	12	0	13.5713	0.000106666
2	1	0	1	0	0	16.2691	0.412631	0.413007	0.277657	1	0.00765285	12	0	15.2691	0.000114675
2	1	0	1	0	0	17.9668	0.429608	0.429968	0.288622	1	0.00813044	12	0	16.9668	0.000124098
2	1	0	1	0	0	19.6645	0.446586	0.446927	0.300323	1	0.00862991	12	0	18.6645	0.000134223
2	1	0	1	0	0	21.2644	0.437399	0.437764	-0.0147939	1	0.00880549	13	0	0.1498	-6.47622e-06
2	0	0	1	0	0	22.9621	0.420421	0.42069	-0.0705993	1	0.00872745	13	0	1.8475	-2.97004e-05
2	0	0	1	0	0	24.6899	0.403144	0.403459	-0.104601	1	0.00857375	12	0	3.5753	-4.22022e-05
2	0	0	1	0	0	26.3876	0.386166	0.386438	-0.121786	1	0.00837893	12	0	5.273	-4.70629e-05
2	0	0	1	0	0	28.0853	0.369189	0.369504	-0.14684	1	0.00815095	12	0	6.9707	-5.42579e-05
2	0	0	1	0	0	29.7831	0.352211	0.352518	-0.158958	1	0.0078924	12	0	8.6685	-5.60357e-05
2	1	0	1	0	1	31.3825	0.363796	0.364086	0.180358	2	0.00803257	12	0	1.1984	6.56657e-05
2	1	0	1	0	1	33.0803	0.380773	0.38103	0.187331	2	0.00834553	12	0	2.8962	7.13789e-05
2	1	0	1	0	1	34.7781	0.397751	0.398027	0.179831	2	0.00865633	12	0	4.594	7.15777e-05
2	1	0	1	0	1	36.4758	0.414729	0.415083	0.187192	2	0.00896814	12	0	6.2917	7.77001e-05
2	1	0	1	0	1	38.1735	0.431706	0.431992	0.194734	2	0.00928967	12	0	7.9894	8.41238e-05
2	1	0	1	0	1	39.8713	0.448683	0.448935	0.217491	2	0.00963839	12	0	9.6872	9.76393e-05
2	0	0	1	0	1	41.4611	0.435401	0.435717	-0.0695864	2	0.00964159	13	0	1.0486	-3.03199e-05
2	0	0	1	0	1	43.1889	0.418124	0.418378	-0.103039	2	0.00949121	12	0	2.7764	-4.31095e-05
2	0	0	1	0	1	44.8866	0.401146	0.401461	-0.121941	2	0.00929985	12	0	4.4741	-4.89546e-05
2	0	0	1	0	1	46.5843	0.384169	0.384435	-0.137285	2	0.00907867	12	0	6.1718	-5.27773e-05
2	0	0	1	0	1	48.2821	0.367191	0.367483	-0.154237	2	0.00883212	12	0	7.8696	-5.66795e-05
2	0	0	1	0	1	49.9774	0.350239	0.350564	-0.164779	2	0.00855955	12	0	9.5649	-5.77656e-05
2	1	0	1	0	0	51.5793	0.365793	0.366137	0.175102	3	0.00875236	12	0	1.3982	6.41114e-05
2	1	0	1	0	0	53.2771	0.382771	0.383068	0.167647	3	0.00904372	12	0	3.096	6.42202e-05
2	1	0	1	0	0	54.9748	0.399749	0.400033	0.169845	3	0.00933099	12	0	4.7937	6.79435e-05
2	1	0	1	0	0	56.6725	0.416726	0.416979	0.168863	3	0.00961678	12	0	6.4914	7.04124e-05
2	1	0	1	0	0	58.3703	0.433703	0.433931	0.175855	3	0.00990959	12	0	8.1892	7.6309e-05
2	1	0	0	0	0	59.9976	0.450007	0.450269	0.21	3	0.0102109	12	0	9.8165	9.45562e-05
2	0	0	1	0	0	61.6579	0.433403	0.433679	-0.0858102	3	0.0101425	13	0	1.3482	-3.72141e-05
2	0	0	1	0	0	63.3856	0.416126	0.416468	-0.112589	3	0.00996961	12	0	3.0759	-4.68899e-05
2	0	0	1	0	0	65.0833	0.399149	0.399426	-0.126422	3	0.00976458	12	0	4.7736	-5.04964e-05
2	0	0	1	0	0	66.7811	0.382172	0.382398	-0.145282	3	0.00953469	12	0	6.4714	-5.55557e-05
2	0	0	1	0	0	68.4788	0.365195	0.365371	-0.152756	3	0.00928109	12	0	8.1691	-5.58125e-05
2	0	0	1	0	1	70.0783	0.350813	0.351033	-0.0606416	4	0.00902471	12	0	9.7686	-2.12872e-05
2	1	0	1	0	1	71.7761	0.367791	0.368059	0.166574	4	0.00925602	12	0	1.598	6.13092e-05
2	1	0	1	0	1	73.4738	0.384769	0.385037	0.162568	4	0.0095369	12	0	3.2957	6.25948e-05
2	1	0	1	0	1	75.1715	0.401745	0.402028	0.163327	4	0.00981239	12	0	4.9934	6.56622e-05
2	1	0	1	0	1	76.8693	0.418723	0.418973	0.158598	4	0.0100863	12	0	6.6912	6.6448e-05
2	1	0	1	0	1	78.567	0.4357	0.436022	0.171928	4	0.0103653	12	0	8.3889	7.49643e-05
2	1	0	1	0	1	80.1269	0.448683	0.448994	0.0464073	4	0.0106286	12	0	9.9488	2.08366e-05
2	0	0	1	0	1	81.8546	0.431407	0.431721	-0.091179	4	0.0105142	13	0	1.5479	-3.93639e-05
2	0	0	1	0	1	83.5823	0.414129	0.414422	-0.113672	4	0.010329	12	0	3.2756	-4.71082e-05
2	0	0	1	0	1	85.2801	0.397152	0.397428	-0.135056	4	0.010117	12	0	4.9734	-5.36749e-05
2	0	0	1	0	1	86.9778	0.380174	0.380389	-0.142203	4	0.00988196	12	0	6.6711	-5.40925e-05
2	0	0	1	0	1	88.6755	0.363197	0.363436	-0.159917	4	0.00962426	12	0	8.3688	-5.81197e-05
2	1	0	1	0	0	90.275	0.35281	0.353088	0.0768367	5	0.00940237	12	0	0.0999	2.71302e-05
2	1	0	1	0	0	91.9727	0.369788	0.370046	0.15933	5	0.00965821	12	0	1.7976	5.89595e-05
2	1	0	1	0	0	93.6705	0.386765	0.387025	0.163315	5	0.00993221	12	0	3.4954	6.32072e-05
2	1	0	1	0	0	95.3683	0.403743	0.403988	0.153823	5	0.0102005	12	0	5.1932	6.21424e-05
2	1	0	1	0	0	97.066	0.42072	0.421002	0.15938	5	0.0104666	12	0	6.8909	6.70993e-05
2	1	0	1	0	0	98.7637	0.437698	0.437994	0.163002	5	0.0107378	12	0	8.5886	7.13937e-05
2	0	0	1	0	0	100.354	0.446386	0.446677	-0.0395286	5	0.0109555	13	0	0.1298	-1.76565e-05
2	0	0	1	0	0	102.081	0.429109	0.429363	-0.100078	5	0.0108118	12	0	1.8575	-4.29697e-05
2	0	0	1	0	0	103.779	0.412132	0.412414	-0.120322	5	0.0106218	12	0	3.5553	-4.96227e-05
2	0	0	1	0	0	105.477	0.395154	0.395421	-0.135678	5	0.0104052	12	0	5.253	-5.36499e-05
2	0	0	1	0	0	107.174	0.378177	0.378458	-0.144406	5	0.0101666	12	0	6.9507	-5.46518e-05
2	0	0	1	0	0	108.872	0.361199	0.361432	-0.163139	5	0.00990618	12	0	8.6485	-5.89638e-05
2	1	0	1	0	1	110.472	0.354808	0.355039	0.122336	6	0.0097366	12	0	0.2996	4.3434e-05
2	1	0	1	0	1	112.169	0.371785	0.372083	0.160591	6	0.0100003	12	0	1.9974	5.97533e-05
[...]
2	0	0	1	0	0	140.747	0.442391	0.442648	-0.0817272	7	0.0114595	13	0	0.5293	-3.61764e-05
2	0	0	1	0	0	142.475	0.425114	0.425417	-0.11216	7	0.011292	12	0	2.257	-4.77146e-05
2	0	0	1	0	0	144.172	0.408137	0.408391	-0.12241	7	0.0110917	12	0	3.9547	-4.99913e-05
2	0	0	1	0	0	145.87	0.39116	0.39143	-0.140858	7	0.0108685	12	0	5.6525	-5.51361e-05
2	0	0	1	0	0	147.568	0.374183	0.37438	-0.145816	7	0.0106249	12	0	7.3502	-5.45905e-05
2	0	0	1	0	0	149.266	0.357205	0.357446	-0.166844	7	0.0103596	12	0	9.0479	-5.96377e-05
2	1	0	1	0	1	150.865	0.358802	0.359073	0.150495	8	0.0103111	12	0	0.6991	5.40385e-05
2	1	0	1	0	1	152.563	0.37578	0.376053	0.155528	8	0.010576	12	0	2.3968	5.84866e-05
2	1	0	1	0	1	154.261	0.392757	0.39299	0.152687	8	0.0108372	12	0	4.0946	6.00045e-05
2	1	0	1	0	1	155.958	0.409735	0.410067	0.149354	8	0.0110929	12	0	5.7924	6.12453e-05
2	1	0	1	0	1	157.656	0.426712	0.427019	0.151859	8	0.0113463	12	0	7.4901	6.48465e-05
2	1	0	1	0	1	159.354	0.44369	0.443985	0.1549	8	0.0116061	12	0	9.1878	6.87733e-05
2	0	0	1	0	1	160.944	0.440394	0.440682	-0.0864103	8	0.0116676	13	0	0.729	-3.80795e-05
2	0	0	1	0	1	162.671	0.423117	0.423409	-0.111739	8	0.0114926	12	0	2.4567	-4.73111e-05
2	0	0	1	0	1	164.369	0.40614	0.406404	-0.128042	8	0.0112889	12	0	4.1545	-5.20369e-05
2	0	0	1	0	1	166.067	0.389162	0.389418	-0.13678	8	0.0110631	12	0	5.8522	-5.32648e-05
2	0	0	1	0	1	167.765	0.372185	0.372422	-0.15384	8	0.0108175	12	0	7.5499	-5.72933e-05
2	0	0	1	0	1	169.462	0.355207	0.35548	-0.160994	8	0.0105498	12	0	9.2477	-5.72301e-05
2	1	0	1	0	0	171.062	0.3608	0.361072	0.155356	9	0.0105644	12	0	0.8988	5.60949e-05
2	1	0	1	0	0	172.76	0.377777	0.378009	0.153486	9	0.0108278	12	0	2.5966	5.80189e-05
2	1	0	1	0	0	174.457	0.394755	0.395007	0.150108	9	0.0110865	12	0	4.2944	5.92938e-05
2	1	0	1	0	0	176.155	0.411732	0.41201	0.149272	9	0.0113391	12	0	5.9921	6.15015e-05
2	1	0	1	0	0	177.853	0.42871	0.428995	0.146618	9	0.0115901	12	0	7.6898	6.28982e-05
2	1	0	1	0	0	179.551	0.445687	0.446011	0.159052	9	0.0118477	12	0	9.3876	7.09387e-05
2	0	0	1	0	0	181.14	0.438397	0.438639	-0.0925455	9	0.0118575	13	0	0.9137	-4.0594e-05
2	0	0	1	0	0	182.868	0.42112	0.421408	-0.115716	9	0.0116763	12	0	2.6415	-4.87635e-05
2	0	0	1	0	0	184.566	0.404142	0.404436	-0.126505	9	0.011469	12	0	4.3392	-5.11633e-05
2	0	0	1	0	0	186.264	0.387165	0.387421	-0.142254	9	0.0112412	12	0	6.0369	-5.51123e-05
2	0	0	1	0	0	187.961	0.370187	0.370452	-0.149285	9	0.0109932	12	0	7.7347	-5.53028e-05
2	0	0	1	0	0	189.659	0.353211	0.353455	-0.169231	9	0.0107235	12	0	9.4324	-5.98155e-05
2	1	0	1	0	1	191.259	0.362797	0.363024	0.151288	10	0.0108009	12	0	1.0986	5.49211e-05
2	1	0	1	0	1	192.956	0.379775	0.380041	0.153815	10	0.0110627	12	0	2.7964	5.84561e-05
2	1	0	1	0	1	194.654	0.396753	0.397011	0.148352	10	0.0113184	12	0	4.4941	5.88974e-05
2	1	0	1	0	1	196.352	0.41373	0.414034	0.146197	10	0.0115689	12	0	6.1918	6.05305e-05
2	1	0	1	0	1	198.05	0.430707	0.431006	0.148539	10	0.0118176	12	0	7.8896	6.40211e-05
2	1	0	1	0	1	199.747	0.447684	0.447935	0.154826	10	0.0120743	12	0	9.5873	6.93522e-05
2	0	0	1	0	1	201.337	0.436399	0.436669	-0.0974102	10	0.0120313	13	0	1.1285	-4.25361e-05
2	0	0	1	0	1	203.065	0.419122	0.419381	-0.117937	10	0.0118448	12	0	2.8562	-4.94605e-05
2	0	0	1	0	1	204.763	0.402145	0.402373	-0.129572	10	0.0116349	12	0	4.5539	-5.21361e-05
2	0	0	1	0	1	206.46	0.385168	0.385413	-0.141024	10	0.0114047	12	0	6.2517	-5.43525e-05
2	0	0	1	0	1	208.158	0.368191	0.368446	-0.15411	10	0.011155	12	0	7.9494	-5.67812e-05
2	0	0	1	0	1	209.856	0.351213	0.351486	-0.166431	10	0.010883	12	0	9.6471	-5.84981e-05
2	0	0	1	0	1	209.975	0.349989	0.350288	-0.167478	10	0.0108633	12	0	9.766	-5.86655e-05