Folder: SI_for_publications/ACS_Catal_2026/Figures_Na_K/main_figures/data/EC/20251112_2-148_alpha_reproducibility (part 4)

File: 20251112_2-148_001_alpha_reproducibility_1_Na1_01_CVA_C01.mpt
EC-Lab ASCII FILE
Nb header lines : 66

Cyclic Voltammetry Advanced

Run on channel : 1 (SN 69187)
User :
CE vs. WE compliance from -10 V to 10 V
Electrode connection : standard
Potential control : Ewe
Ewe ctrl range : min = -1.00 V, max = 1.00 V
Safety Limits :
	Do not start on E overload
Acquisition started on : 11/12/2025 13:54:05.582
Loaded Setting File :  C:\Users\User\Documents\EC-Lab\Data\Yatsuzuka\20251030_2-147_gamma_reproducibility\20251030_2-147_001_gamma1_K_1.mps
Saved on :
	File : 20251112_2-148_001_alpha_reproducibility_1_Na1_01_CVA_C01.mpr
	Directory : C:\Users\User\Documents\EC-Lab\Data\Yatsuzuka\20251112_2-148_alpha_reproducibility\
	Host : 192.109.209.127
Device : SP-150e (SN .003883)
Address : 192.109.209.128
EC-LAB for windows v11.52 (software)
Internet server v11.52 (firmware)
Command interpretor v11.50 (firmware)
Electrode material :
Initial state :
Electrolyte :
Comments :
Electrode surface area : 0.001 cm2
Characteristic mass : 0.001 g
Equivalent Weight : 0.000 g/eq.
Density : 0.000 g/cm3
Volume (V) : 0.001 cm3
Cycle Definition : Charge/Discharge alternance
Ei (V)              0.350
vs.                 Ref
ti (h:m:s)          0:00:10.0000
dti (s)             0.0000
dE/dt               10.000
dE/dt unit          mV/s
E1 (V)              0.450
vs.                 Ref
t1 (h:m:s)          0:00:0.0000
dt1 (s)             0.1000
Step percent        50
N                   10
E range min (V)     -1.000
E range max (V)     1.000
I Range             Auto
I Range min         Unset
I Range max         Unset
I Range init        Unset
Bandwidth           5
E2 (V)              0.350
vs.                 Ref
t2 (h:m:s)          0:00:0.0000
dt2 (s)             0.1000
nc cycles           9
nr                  1
Reverse Scan        0
Ef (V)              0.000
vs.                 Eoc
tf (h:m:s)          0:00:0.0000
dtf (s)             0.1000

mode	ox/red	error	control changes	Ns changes	counter inc.	time/s	control/V	Ewe/V	<I>/mA	cycle number	(Q-Qo)/C	I Range	Ns	step time/s	Pwe/W	Rwe/Ohm
2	0	0	1	0	0	0.000000000000000E+000	0.34995	0.34959	-0.00239882	1	0.0000000E+000	14	0	0.000000000000000E+000	-8.38603e-07	145734
2	1	0	1	0	0	1.9047	0.368998	0.368793	0.0381083	1	6.11772e-05	13	0	1.8624	1.40541e-05	9677.48
2	1	0	1	0	0	3.8021	0.387972	0.387746	0.0336106	1	0.000121521	13	0	3.7598	1.30323e-05	11536.4
2	1	0	1	0	0	5.6995	0.406945	0.406727	0.0253042	1	0.000178883	13	0	5.6572	1.02919e-05	16073.5
2	1	0	1	0	0	7.5969	0.425919	0.425672	0.0223491	1	0.000233349	13	0	7.5546	9.51341e-06	19046.5
2	1	0	1	0	0	9.4943	0.444893	0.444676	0.0202621	1	0.00028544	13	0	9.452	9.01008e-06	21946.2
2	0	0	1	0	0	11.3883	0.436155	0.435863	-0.0307691	1	0.000268623	13	0	1.3581	-1.34111e-05	14165.6
2	0	0	1	0	0	13.2857	0.417181	0.416939	-0.0329196	1	0.000219967	13	0	3.2555	-1.37255e-05	12665.4
2	0	0	1	0	0	15.1831	0.398208	0.397904	-0.0336928	1	0.000166812	13	0	5.1529	-1.34065e-05	11809.8
2	0	0	1	0	0	17.0805	0.379234	0.378936	-0.0344641	1	0.000109055	13	0	7.0503	-1.30597e-05	10995.1
2	0	0	1	0	0	18.9778	0.360261	0.359942	-0.0339331	1	4.57684e-05	13	0	8.9476	-1.2214e-05	10607.4
2	1	0	1	0	1	20.8429	0.358413	0.358192	0.0289305	2	3.31733e-05	13	0	0.794	1.03627e-05	12381.1
2	1	0	1	0	1	22.7402	0.377386	0.377201	0.0281756	2	9.34187e-05	13	0	2.6913	1.06279e-05	13387.5
2	1	0	1	0	1	24.6376	0.396361	0.396123	0.0260686	2	0.000151436	13	0	4.5887	1.03264e-05	15195.4
2	1	0	1	0	1	26.5349	0.415334	0.415116	0.0298726	2	0.000206761	13	0	6.486	1.24006e-05	13896.2
2	1	0	1	0	1	28.4323	0.434308	0.434107	0.0337616	2	0.000259689	13	0	8.3834	1.46562e-05	12858
2	0	0	1	0	1	30.3364	0.44664	0.446414	-0.0156361	2	0.000296101	13	0	0.2297	-6.98017e-06	28550.2
2	0	0	1	0	1	32.2337	0.427667	0.42742	-0.0209521	2	0.000250477	13	0	2.127	-8.95536e-06	20399.8
2	0	0	1	0	1	34.1311	0.408693	0.408437	-0.0228436	2	0.000199797	13	0	4.0244	-9.33017e-06	17879.7
2	0	0	1	0	1	36.0285	0.389719	0.389433	-0.024023	2	0.000144636	13	0	5.9218	-9.35533e-06	16210.9
2	0	0	1	0	1	37.9259	0.370746	0.370502	-0.0264983	2	8.4554e-05	13	0	7.8192	-9.81767e-06	13982.1
2	0	0	1	0	1	39.8233	0.351772	0.351491	-0.0338849	2	1.85293e-05	13	0	9.7166	-1.19103e-05	10373.1
2	1	0	1	0	0	41.6883	0.366901	0.366629	0.0367497	3	6.17486e-05	13	0	1.6428	1.34735e-05	9976.38
2	1	0	1	0	0	43.5856	0.385874	0.385609	0.0366386	3	0.00012097	13	0	3.5401	1.41282e-05	10524.7
2	1	0	1	0	0	45.483	0.404849	0.404595	0.0274908	3	0.000177606	13	0	5.4375	1.11226e-05	14717.5
2	1	0	1	0	0	47.3803	0.423822	0.42358	0.0217204	3	0.000231897	13	0	7.3348	9.20034e-06	19501.4
2	1	0	1	0	0	49.2777	0.442796	0.442562	0.0289734	3	0.00028382	13	0	9.2322	1.28225e-05	15274.8
2	0	0	1	0	0	51.1818	0.438153	0.437924	-0.0192605	3	0.000276745	13	0	1.1434	-8.43464e-06	22736.9
2	0	0	1	0	0	53.0792	0.419178	0.418941	-0.0281227	3	0.000228544	13	0	3.0408	-1.17818e-05	14896.9
2	0	0	1	0	0	54.9765	0.400205	0.399958	-0.0348503	3	0.000176088	13	0	4.9381	-1.39387e-05	11476.5
2	0	0	1	0	0	56.8739	0.381231	0.381004	-0.0261099	3	0.000118996	13	0	6.8355	-9.94799e-06	14592.3
2	0	0	1	0	0	58.7713	0.362257	0.362028	-0.0368098	3	5.64708e-05	13	0	8.7329	-1.33262e-05	9835.1
2	1	0	1	0	1	60.6363	0.356416	0.356195	0.0318062	4	3.13007e-05	13	0	0.5292	1.13292e-05	11198.9
2	1	0	1	0	1	62.5337	0.375389	0.375117	0.0255904	4	9.16216e-05	13	0	2.4266	9.5994e-06	14658.5
2	1	0	1	0	1	64.4311	0.394363	0.394102	0.0348412	4	0.000149691	13	0	4.324	1.3731e-05	11311.4
2	1	0	1	0	1	66.3284	0.413336	0.413134	0.0341581	4	0.000204997	13	0	6.2213	1.41119e-05	12094.7
2	1	0	1	0	1	68.2258	0.432311	0.432083	0.0243542	4	0.00025797	13	0	8.1187	1.0523e-05	17741.6
2	0	0	1	0	1	70.0999	0.448937	0.448702	-0.0219936	4	0.000305174	12	0	0.000000000000000E+000	-9.86855e-06	20401.5
2	0	0	1	0	1	72.0273	0.429664	0.429466	-0.0198731	4	0.000260126	13	0	1.9274	-8.5348e-06	21610.4
2	0	0	1	0	1	73.9246	0.41069	0.410422	-0.0344943	4	0.000210067	13	0	3.8247	-1.41572e-05	11898.3
2	0	0	1	0	1	75.822	0.391716	0.391441	-0.0254772	4	0.000155606	13	0	5.7221	-9.97281e-06	15364.4
2	0	0	1	0	1	77.7193	0.372743	0.372538	-0.0330009	4	9.62305e-05	13	0	7.6194	-1.22941e-05	11288.7
2	0	0	1	0	1	79.6167	0.353769	0.353496	-0.0389947	4	3.14647e-05	13	0	9.5168	-1.37844e-05	9065.23
2	1	0	1	0	0	81.4817	0.364904	0.364618	0.0256028	5	6.14578e-05	13	0	1.458	9.33524e-06	14241.3
2	1	0	1	0	0	83.3791	0.383877	0.3836	0.0371745	5	0.000120801	13	0	3.3554	1.42602e-05	10318.9
2	1	0	1	0	0	85.2765	0.402851	0.402605	0.0229651	5	0.000177611	13	0	5.2528	9.24588e-06	17531.1
2	1	0	1	0	0	87.1739	0.421825	0.42158	0.0331982	5	0.000231915	13	0	7.1502	1.39957e-05	12698.9
2	1	0	1	0	0	89.0712	0.440798	0.440635	0.0230223	5	0.000283797	13	0	9.0475	1.01444e-05	19139.5
2	0	0	1	0	0	90.9753	0.440149	0.43989	-0.0183548	5	0.000288508	13	0	0.8788	-8.07411e-06	23965.9
2	0	0	1	0	0	92.8727	0.421176	0.4209	-0.0308399	5	0.000240823	13	0	2.7762	-1.29805e-05	13647.9
2	0	0	1	0	0	94.7701	0.402202	0.40194	-0.0245297	5	0.000188918	13	0	4.6736	-9.85948e-06	16385.9
2	0	0	1	0	0	96.6674	0.383229	0.382958	-0.0341097	5	0.000132381	13	0	6.5709	-1.30626e-05	11227.2
2	0	0	1	0	0	98.5648	0.364254	0.363959	-0.0308687	5	7.09839e-05	13	0	8.4683	-1.12349e-05	11790.5
2	1	0	1	0	1	100.43	0.354419	0.354129	0.0337912	6	3.2115e-05	13	0	0.3445	1.19665e-05	10479.9
2	1	0	1	0	1	102.327	0.373392	0.373198	0.0292274	6	9.19109e-05	13	0	2.2418	1.09076e-05	12768.8
[...]
2	0	0	1	0	0	130.769	0.442146	0.441904	-0.0168744	7	0.000297036	13	0	0.744	-7.45687e-06	26187.8
2	0	0	1	0	0	132.666	0.423173	0.422946	-0.0312537	7	0.000249987	13	0	2.6413	-1.32186e-05	13532.7
2	0	0	1	0	0	134.563	0.404199	0.404	-0.0250893	7	0.000198618	13	0	4.5387	-1.01361e-05	16102.5
2	0	0	1	0	0	136.461	0.385226	0.385008	-0.0312177	7	0.000142689	13	0	6.4361	-1.20191e-05	12333
2	0	0	1	0	0	138.358	0.366252	0.365986	-0.0354838	7	8.21349e-05	13	0	8.3335	-1.29866e-05	10314.2
2	1	0	1	0	1	140.208	0.352271	0.351972	0.0299796	8	2.97813e-05	12	0	0.1298	1.0552e-05	11740.4
2	1	0	1	0	1	142.121	0.371394	0.371231	0.0379553	8	9.00505e-05	13	0	2.0421	1.40902e-05	9780.73
2	1	0	1	0	1	144.018	0.390368	0.390159	0.0238026	8	0.000148448	13	0	3.9395	9.2868e-06	16391.4
2	1	0	1	0	1	145.915	0.409343	0.409129	0.0343345	8	0.0002042	13	0	5.8369	1.40472e-05	11916
2	1	0	1	0	1	147.813	0.428316	0.428075	0.0241974	8	0.000257307	13	0	7.7342	1.03583e-05	17691
2	1	0	1	0	1	149.71	0.44729	0.447052	0.0244346	8	0.000308709	13	0	9.6316	1.09235e-05	18295.9
2	0	0	1	0	1	151.614	0.433658	0.433411	-0.0190346	8	0.000277837	13	0	1.5928	-8.24981e-06	22769.6
2	0	0	1	0	1	153.511	0.414685	0.414503	-0.0315412	8	0.000228776	13	0	3.4901	-1.30739e-05	13141.6
2	0	0	1	0	1	155.409	0.395711	0.395418	-0.0309164	8	0.000175621	13	0	5.3875	-1.22249e-05	12789.9
2	0	0	1	0	1	157.306	0.376737	0.3765	-0.0249821	8	0.00011769	13	0	7.2849	-9.40577e-06	15070.8
2	0	0	1	0	1	159.204	0.357764	0.357525	-0.030304	8	5.43742e-05	13	0	9.1823	-1.08344e-05	11797.9
2	1	0	1	0	0	161.069	0.360909	0.360664	0.0319711	9	5.8333e-05	13	0	0.9936	1.15308e-05	11281
2	1	0	1	0	0	162.966	0.379883	0.379629	0.0373037	9	0.000117798	13	0	2.891	1.41615e-05	10176.7
2	1	0	1	0	0	164.863	0.398856	0.398667	0.0352037	9	0.000174796	13	0	4.7883	1.40345e-05	11324.6
2	1	0	1	0	0	166.761	0.417831	0.417607	0.0278137	9	0.000229265	13	0	6.6857	1.16152e-05	15014.4
2	1	0	1	0	0	168.658	0.436804	0.436567	0.0214761	9	0.000281521	13	0	8.583	9.37576e-06	20328.1
2	0	0	1	0	0	170.562	0.444144	0.44385	-0.0256958	9	0.000304875	13	0	0.5443	-1.14051e-05	17273.3
2	0	0	1	0	0	172.46	0.425171	0.424905	-0.0228927	9	0.000258465	13	0	2.4416	-9.72722e-06	18560.7
2	0	0	1	0	0	174.357	0.406196	0.405942	-0.0215635	9	0.000207457	13	0	4.339	-8.75354e-06	18825.4
2	0	0	1	0	0	176.254	0.387223	0.386932	-0.0271548	9	0.000152184	13	0	6.2363	-1.05071e-05	14249.1
2	0	0	1	0	0	178.152	0.368249	0.367959	-0.0389961	9	9.23257e-05	13	0	8.1337	-1.4349e-05	9435.78
2	0	0	1	0	1	179.979	0.35005	0.349914	-0.019797	10	2.89857e-05	13	0	9.9612	-6.92724e-06	17675.2
2	1	0	1	0	1	181.914	0.369398	0.369241	0.0312001	10	8.72078e-05	13	0	1.8424	1.15204e-05	11834.6
2	1	0	1	0	1	183.811	0.388371	0.38813	0.0330686	10	0.000145867	13	0	3.7398	1.28349e-05	11737.1
2	1	0	1	0	1	185.709	0.407345	0.407136	0.0229044	10	0.000201616	13	0	5.6372	9.32521e-06	17775.4
2	1	0	1	0	1	187.606	0.426318	0.426073	0.0337807	10	0.000254914	13	0	7.5345	1.4393e-05	12612.9
2	1	0	1	0	1	189.504	0.445293	0.445061	0.0241229	10	0.000306384	13	0	9.4319	1.07362e-05	18449.8
2	0	0	1	0	1	191.408	0.435656	0.435439	-0.0299648	10	0.000286114	13	0	1.3282	-1.30478e-05	14531.7
2	0	0	1	0	1	193.305	0.416682	0.416468	-0.0201191	10	0.00023757	13	0	3.2256	-8.37897e-06	20700.1
2	0	0	1	0	1	195.202	0.397709	0.397448	-0.0329277	10	0.000184937	13	0	5.1229	-1.30871e-05	12070.3
2	0	0	1	0	1	197.1	0.378734	0.378473	-0.0333668	10	0.000127595	13	0	7.0203	-1.26284e-05	11342.8
2	0	0	1	0	1	198.997	0.359761	0.359503	-0.0280767	10	6.52539e-05	13	0	8.9176	-1.00937e-05	12804.4
2	0	0	0	0	1	199.971	0.35	0.349704	-0.0485379	10	3.05811e-05	13	0	9.8913	-1.69739e-05	7204.76

File: 20251112_2-148_001_alpha_reproducibility_1_Na1_02_PEIS_C01.mpt
EC-Lab ASCII FILE
Nb header lines : 63

Potentio Electrochemical Impedance Spectroscopy

Run on channel : 1 (SN 69187)
User :
CE vs. WE compliance from -10 V to 10 V
Electrode connection : standard
Potential control : Ewe
Ewe ctrl range : min = -1.00 V, max = 1.00 V
Safety Limits :
	Do not start on E overload
Acquisition started on : 11/12/2025 13:54:05.582
Loaded Setting File :  C:\Users\User\Documents\EC-Lab\Data\Yatsuzuka\20251030_2-147_gamma_reproducibility\20251030_2-147_001_gamma1_K_1.mps
Saved on :
	File : 20251112_2-148_001_alpha_reproducibility_1_Na1_02_PEIS_C01.mpr
	Directory : C:\Users\User\Documents\EC-Lab\Data\Yatsuzuka\20251112_2-148_alpha_reproducibility\
	Host : 192.109.209.127
Device : SP-150e (SN .003883)
Address : 192.109.209.128
EC-LAB for windows v11.52 (software)
Internet server v11.52 (firmware)
Command interpretor v11.50 (firmware)
Electrode material :
Initial state :
Electrolyte :
Comments :
Electrode surface area : 0.001 cm2
Characteristic mass : 0.001 g
Equivalent Weight : 0.000 g/eq.
Density : 0.000 g/cm3
Volume (V) : 0.001 cm3
Cycle Definition : Charge/Discharge alternance
Mode                Single sine
E (V)               0.4500
vs.                 Ref
tE (h:m:s)          0:00:0.0000
record              0
dI                  0.000
unit dI             mA
dt (s)              0.000
fi                  500.000
unit fi             kHz
ff                  1.000
unit ff             Hz
Nd                  6
Points              per decade
spacing             Logarithmic
Va (mV)             10.0
pw                  0.10
Na                  2
corr                0
E range min (V)     -1.000
E range max (V)     1.000
I Range             Auto
Bandwidth           5
nc cycles           0
goto Ns'            0
nr cycles           0
inc. cycle          0

freq/Hz	Re(Z)/Ohm	-Im(Z)/Ohm	|Z|/Ohm	Phase(Z)/deg	time/s	<Ewe>/V	<I>/mA	Cs/uF	Cp/uF	cycle number	I Range	|Ewe|/V	|I|/A	Ns	(Q-Qo)/mA.h	Re(Y)/Ohm-1	Im(Y)/Ohm-1	|Y|/Ohm-1	Phase(Y)/deg	Re(C)/nF	Im(C)/nF	|C|/nF	Phase(C)/deg	Re(M)	Im(M)	|M|	Phase(M)/deg	Re(Permittivity)	Im(Permittivity)	|Permittivity|	Phase(Permittivity)/deg	Re(Resistivity)/Ohm.cm	Im(Resistivity)/Ohm.cm	|Resistivity|/Ohm.cm	Phase(Resistivity)/deg	Re(Conductivity)/mS/cm	Im(Conductivity)/mS/cm	|Conductivity|/mS/cm	Phase(Conductivity)/deg	Tan(Delta)	Loss Angle(Delta)/deg	dq/mA.h	Pwe/W	Rwe/Ohm
500019	16.0991	-2.09903	16.2353	7.42845	201.6	0.450154	0.0143853	-0.15164	-0.00253472	1	10	0.00497162	0.000306222	0	2.12452e-05	0.0610771	-0.00796337	0.061594	-7.42845	-2.53472	19.4407	19.6053	-97.4284	0.0000000E+000	0.0000000E+000	0.0000000E+000	97.4284	0.0000000E+000	0.0000000E+000	0.0000000E+000	-97.4284	0.0000000E+000	0.0000000E+000	0.0000000E+000	7.42845	0.0000000E+000	0.0000000E+000	0.0000000E+000	-7.42845	7.66976	82.5716	2.12452e-05	6.47559e-06	31292.7
231063	9.48196	-0.7611	9.51246	4.58919	202.445	0.449834	0.0105652	-0.905	-0.00579358	1	10	0.0102522	0.00107777	0	2.34286e-05	0.104788	-0.00841117	0.105125	-4.58919	-5.79358	72.1777	72.4099	-94.5892	0.0000000E+000	0.0000000E+000	0.0000000E+000	94.5892	0.0000000E+000	0.0000000E+000	0.0000000E+000	-94.5892	0.0000000E+000	0.0000000E+000	0.0000000E+000	4.58919	0.0000000E+000	0.0000000E+000	0.0000000E+000	-4.58919	12.4582	85.4108	-5.45493e-07	4.7526e-06	42576.9
106786	8.58968	-0.139513	8.59081	0.930511	203.29	0.449783	0.0121268	-10.6829	-0.00281741	1	10	0.0109515	0.00127479	0	2.56005e-05	0.116388	-0.00189036	0.116403	-0.930511	-2.81741	173.465	173.488	-90.9305	0.0000000E+000	0.0000000E+000	0.0000000E+000	90.9305	0.0000000E+000	0.0000000E+000	0.0000000E+000	-90.9305	0.0000000E+000	0.0000000E+000	0.0000000E+000	0.930511	0.0000000E+000	0.0000000E+000	0.0000000E+000	-0.930511	61.5691	89.0695	2.0909e-06	5.45442e-06	37090
49352.4	8.51411	-0.00647571	8.51411	0.0435783	204.136	0.449773	0.0149704	-497.995	-0.000288085	1	10	0.0106225	0.00124763	0	2.88472e-05	0.117452	-8.93323e-05	0.117452	-0.0435783	-0.28809	378.767	378.768	-90.0436	0.0000000E+000	0.0000000E+000	0.0000000E+000	90.0436	0.0000000E+000	0.0000000E+000	0.0000000E+000	-90.0436	0.0000000E+000	0.0000000E+000	0.0000000E+000	0.0435783	0.0000000E+000	0.0000000E+000	0.0000000E+000	-0.0435783	1314.78	89.9564	1.86133e-06	6.73328e-06	30044.1
22806.6	8.50802	0.0291553	8.50807	-0.196341	204.981	0.449772	0.0145251	239.355	0.00281071	1	10	0.0104826	0.00123208	0	3.2186e-05	0.117535	0.000402769	0.117536	0.196341	2.81074	820.213	820.218	-89.8037	0.0000000E+000	0.0000000E+000	0.0000000E+000	89.8037	0.0000000E+000	0.0000000E+000	0.0000000E+000	-89.8037	0.0000000E+000	0.0000000E+000	0.0000000E+000	-0.196341	0.0000000E+000	0.0000000E+000	0.0000000E+000	0.196341	291.817	89.8037	2.06234e-06	6.53296e-06	30965.2
10540.4	8.52534	0.0437687	8.52545	-0.294151	205.826	0.449764	0.0111988	344.985	0.0090927	1	10	0.0103208	0.00121059	0	3.53118e-05	0.117294	0.000602183	0.117296	0.294151	9.0927	1771.09	1771.11	-89.7058	0.0000000E+000	0.0000000E+000	0.0000000E+000	89.7058	0.0000000E+000	0.0000000E+000	0.0000000E+000	-89.7058	0.0000000E+000	0.0000000E+000	0.0000000E+000	-0.294151	0.0000000E+000	0.0000000E+000	0.0000000E+000	0.294151	194.782	89.7058	9.65565e-07	5.03681e-06	40161.8
4871.56	8.54043	0.0443331	8.54055	-0.297418	207.039	0.449768	0.0120392	736.927	0.0198568	1	10	0.0101206	0.00118501	0	4.1754e-05	0.117087	0.000607794	0.117088	0.297418	19.8567	3825.26	3825.31	-89.7026	0.0000000E+000	0.0000000E+000	0.0000000E+000	89.7026	0.0000000E+000	0.0000000E+000	0.0000000E+000	-89.7026	0.0000000E+000	0.0000000E+000	0.0000000E+000	-0.297418	0.0000000E+000	0.0000000E+000	0.0000000E+000	0.297418	192.642	89.7026	2.98174e-06	5.41485e-06	37358.6
2250.72	8.54835	0.0646136	8.5486	-0.433068	207.969	0.449762	0.012328	1094.4	0.0625221	1	10	0.0108721	0.0012718	0	4.48268e-05	0.116975	0.000884168	0.116978	0.433068	62.5219	8271.63	8271.87	-89.5669	0.0000000E+000	0.0000000E+000	0.0000000E+000	89.5669	0.0000000E+000	0.0000000E+000	0.0000000E+000	-89.5669	0.0000000E+000	0.0000000E+000	0.0000000E+000	-0.433068	0.0000000E+000	0.0000000E+000	0.0000000E+000	0.433068	132.299	89.5669	5.3414e-07	5.54469e-06	36482.8
1040.33	8.56718	0.104609	8.56782	-0.699569	209.12	0.449765	0.0119945	1462.45	0.218009	1	10	0.0100836	0.00117692	0	4.89255e-05	0.116707	0.00142504	0.116716	0.699569	218.009	17854.4	17855.7	-89.3004	0.0000000E+000	0.0000000E+000	0.0000000E+000	89.3004	0.0000000E+000	0.0000000E+000	0.0000000E+000	-89.3004	0.0000000E+000	0.0000000E+000	0.0000000E+000	-0.699569	0.0000000E+000	0.0000000E+000	0.0000000E+000	0.699569	81.8974	89.3004	3.62353e-06	5.3947e-06	37497.6
480.769	8.57932	0.201741	8.58169	-1.34705	210.05	0.44976	0.0114485	1640.92	0.906845	1	10	0.0101232	0.00117963	0	5.05545e-05	0.116495	0.00273936	0.116527	1.34705	906.845	38564.8	38575.4	-88.6529	0.0000000E+000	0.0000000E+000	0.0000000E+000	88.6529	0.0000000E+000	0.0000000E+000	0.0000000E+000	-88.6529	0.0000000E+000	0.0000000E+000	0.0000000E+000	-1.34705	0.0000000E+000	0.0000000E+000	0.0000000E+000	1.34705	42.5263	88.6529	7.96166e-07	5.14907e-06	39285.4
222.061	8.59829	0.405483	8.60785	-2.69999	210.974	0.449767	0.0116125	1767.57	3.92222	1	10	0.0101339	0.00117729	0	5.33069e-05	0.116044	0.00547247	0.116173	2.69999	3922.22	83170.9	83263.3	-87.3	0.0000000E+000	0.0000000E+000	0.0000000E+000	87.3	0.0000000E+000	0.0000000E+000	0.0000000E+000	-87.3	0.0000000E+000	0.0000000E+000	0.0000000E+000	-2.69999	0.0000000E+000	0.0000000E+000	0.0000000E+000	2.69999	21.2051	87.3	1.68196e-06	5.22291e-06	38731.3
102.667	8.63759	0.832211	8.67759	-5.50333	211.913	0.449769	0.0115119	1862.75	17.1326	1	10	0.0101391	0.00116842	0	5.60245e-05	0.114708	0.0110519	0.115239	5.50333	17132.6	177821	178644	-84.4967	0.0000000E+000	0.0000000E+000	0.0000000E+000	84.4967	0.0000000E+000	0.0000000E+000	0.0000000E+000	-84.4967	0.0000000E+000	0.0000000E+000	0.0000000E+000	-5.50333	0.0000000E+000	0.0000000E+000	0.0000000E+000	5.50333	10.3791	84.4967	1.6151e-06	5.17768e-06	39070.1
47.4443	8.72939	1.71564	8.89639	-11.119	212.824	0.449752	0.00993352	1955.28	72.7169	1	10	0.0101507	0.001141	0	5.94085e-05	0.110295	0.021677	0.112405	11.119	72716.9	369992	377070	-78.881	0.0000000E+000	0.0000000E+000	0.0000000E+000	78.881	0.0000000E+000	0.0000000E+000	0.0000000E+000	-78.881	0.0000000E+000	0.0000000E+000	0.0000000E+000	-11.119	0.0000000E+000	0.0000000E+000	0.0000000E+000	11.119	5.08811	78.881	1.4229e-06	4.46762e-06	45276.2
21.9144	8.88343	3.54406	9.56429	-21.7496	213.691	0.44975	0.00916205	2049.22	281.375	1	10	0.0101548	0.00106174	0	6.15413e-05	0.0971125	0.0387432	0.104556	21.7496	281375	705285	759341	-68.2504	0.0000000E+000	0.0000000E+000	0.0000000E+000	68.2504	0.0000000E+000	0.0000000E+000	0.0000000E+000	-68.2504	0.0000000E+000	0.0000000E+000	0.0000000E+000	-21.7496	0.0000000E+000	0.0000000E+000	0.0000000E+000	21.7496	2.50657	68.2504	2.03322e-06	4.12063e-06	49088.4
10.1329	9.15753	7.29942	11.7108	-38.5582	214.62	0.449758	0.0106137	2151.77	835.993	1	10	0.0101666	0.000868146	0	6.98317e-05	0.0667742	0.0532253	0.0853916	38.5582	835993	1.0488e+06	1.34122e+06	-51.4418	0.0000000E+000	0.0000000E+000	0.0000000E+000	51.4418	0.0000000E+000	0.0000000E+000	0.0000000E+000	-51.4418	0.0000000E+000	0.0000000E+000	0.0000000E+000	-38.5582	0.0000000E+000	0.0000000E+000	0.0000000E+000	38.5582	1.25456	51.4418	5.52394e-06	4.77358e-06	42375.4
4.68375	9.64909	15.3439	18.1257	-57.8361	215.67	0.449772	0.00154774	2214.57	1586.99	1	11	0.0101748	0.000561347	0	7.13474e-05	0.0293695	0.0467032	0.0551703	57.8361	1.58699e+06	997982	1.8747e+06	-32.1639	0.0000000E+000	0.0000000E+000	0.0000000E+000	32.1639	0.0000000E+000	0.0000000E+000	0.0000000E+000	-32.1639	0.0000000E+000	0.0000000E+000	0.0000000E+000	-57.8361	0.0000000E+000	0.0000000E+000	0.0000000E+000	57.8361	0.628854	32.1639	-4.57041e-07	6.96131e-07	290598
2.16533	10.2736	32.4179	34.0069	-72.416	217.386	0.449776	0.00124153	2267.31	2060.38	1	11	0.0101786	0.00029931	0	6.82092e-05	0.00888362	0.0280318	0.0294058	72.416	2.06038e+06	652960	2.16137e+06	-17.584	0.0000000E+000	0.0000000E+000	0.0000000E+000	17.584	0.0000000E+000	0.0000000E+000	0.0000000E+000	-17.584	0.0000000E+000	0.0000000E+000	0.0000000E+000	-72.416	0.0000000E+000	0.0000000E+000	0.0000000E+000	72.416	0.316912	17.584	3.47173e-06	5.58412e-07	362274
1.00006	11.7557	68.6905	69.6892	-80.2885	221.726	0.449773	0.000383533	2316.84	2250.91	1	12	0.0101785	0.000146056	0	7.47858e-05	0.00242056	0.0141438	0.0143494	80.2885	2.25091e+06	385219	2.28364e+06	-9.71148	0.0000000E+000	0.0000000E+000	0.0000000E+000	9.71148	0.0000000E+000	0.0000000E+000	0.0000000E+000	-9.71148	0.0000000E+000	0.0000000E+000	0.0000000E+000	-80.2885	0.0000000E+000	0.0000000E+000	0.0000000E+000	80.2885	0.171139	9.71149	-1.00629e-07	1.72503e-07	1.17271e+06