Folder: SI_for_publications/ACS_Catal_2026/Figures_Na_K/main_figures/data/EC/20251112_2-148_alpha_reproducibility (part 33)

File: 20251112_2-148_006_gamma_reproducibility_2_K2_02_PEIS_C02.mpt
EC-Lab ASCII FILE
Nb header lines : 63

Potentio Electrochemical Impedance Spectroscopy

Run on channel : 2 (SN 69290)
User :
CE vs. WE compliance from -10 V to 10 V
Electrode connection : standard
Potential control : Ewe
Ewe ctrl range : min = -1.00 V, max = 1.00 V
Safety Limits :
	Do not start on E overload
Acquisition started on : 11/12/2025 20:23:02.181
Loaded Setting File :  C:\Users\User\Documents\EC-Lab\Data\Yatsuzuka\20251112_2-148_alpha_reproducibility\20251112_2-148_002_alpha_reproducibility_2_K1.mps
Saved on :
	File : 20251112_2-148_006_gamma_reproducibility_2_K2_r_02_PEIS_C02.mpr
	Directory : C:\Users\User\Documents\EC-Lab\Data\Yatsuzuka\20251112_2-148_alpha_reproducibility\
	Host : 192.109.209.127
Device : SP-150e (SN .003883)
Address : 192.109.209.128
EC-Lab for windows v11.52 (software)
Internet server v11.52 (firmware)
Command interpretor v11.50 (firmware)
Electrode material :
Initial state :
Electrolyte :
Comments :
Electrode surface area : 0.001 cm2
Characteristic mass : 0.001 g
Equivalent Weight : 0.000 g/eq.
Density : 0.000 g/cm3
Volume (V) : 0.001 cm3
Cycle Definition : Charge/Discharge alternance
Mode                Single sine
E (V)               0.4500
vs.                 Ref
tE (h:m:s)          0:00:0.0000
record              0
dI                  0.000
unit dI             mA
dt (s)              0.000
fi                  500.000
unit fi             kHz
ff                  1.000
unit ff             Hz
Nd                  6
Points              per decade
spacing             Logarithmic
Va (mV)             10.0
pw                  0.10
Na                  2
corr                0
E range min (V)     -1.000
E range max (V)     1.000
I Range             Auto
Bandwidth           5
nc cycles           0
goto Ns'            0
nr cycles           0
inc. cycle          0

freq/Hz	Re(Z)/Ohm	-Im(Z)/Ohm	|Z|/Ohm	Phase(Z)/deg	time/s	<Ewe>/V	<I>/mA	Cs/uF	Cp/uF	cycle number	I Range	|Ewe|/V	|I|/A	Ns	(Q-Qo)/mA.h	Re(Y)/Ohm-1	Im(Y)/Ohm-1	|Y|/Ohm-1	Phase(Y)/deg	Re(C)/nF	Im(C)/nF	|C|/nF	Phase(C)/deg	Re(M)	Im(M)	|M|	Phase(M)/deg	Re(Permittivity)	Im(Permittivity)	|Permittivity|	Phase(Permittivity)/deg	Re(Resistivity)/Ohm.cm	Im(Resistivity)/Ohm.cm	|Resistivity|/Ohm.cm	Phase(Resistivity)/deg	Re(Conductivity)/mS/cm	Im(Conductivity)/mS/cm	|Conductivity|/mS/cm	Phase(Conductivity)/deg	Tan(Delta)	Loss Angle(Delta)/deg	dq/mA.h
500019	16.4308	-2.20555	16.5781	7.64527	202.13	0.449788	0.0173703	-0.144317	-0.00255434	1	10	0.00540349	0.000325941	0	2.98287e-05	0.0597842	-0.008025	0.0603204	-7.64527	-2.55434	19.0292	19.1999	-97.6453	0.0000000E+000	0.0000000E+000	0.0000000E+000	97.6453	0.0000000E+000	0.0000000E+000	0.0000000E+000	-97.6453	0.0000000E+000	0.0000000E+000	0.0000000E+000	7.64527	0.0000000E+000	0.0000000E+000	0.0000000E+000	-7.64527	7.44974	82.3547	2.98287e-05
231063	9.71255	-0.814161	9.74662	4.79165	202.974	0.449552	0.0178774	-0.84602	-0.00590327	1	10	0.0104276	0.00106986	0	3.63487e-05	0.102241	-0.00857043	0.1026	-4.79165	-5.90327	70.4233	70.6703	-94.7916	0.0000000E+000	0.0000000E+000	0.0000000E+000	94.7916	0.0000000E+000	0.0000000E+000	0.0000000E+000	-94.7916	0.0000000E+000	0.0000000E+000	0.0000000E+000	4.79165	0.0000000E+000	0.0000000E+000	0.0000000E+000	-4.79165	11.9295	85.2084	3.43221e-06
106786	8.86372	-0.11623	8.86448	0.751279	203.954	0.449551	0.0190539	-12.8229	-0.00220454	1	10	0.0108505	0.00122404	0	4.17362e-05	0.1128	-0.00147915	0.11281	-0.751279	-2.20455	168.118	168.132	-90.7513	0.0000000E+000	0.0000000E+000	0.0000000E+000	90.7513	0.0000000E+000	0.0000000E+000	0.0000000E+000	-90.7513	0.0000000E+000	0.0000000E+000	0.0000000E+000	0.751279	0.0000000E+000	0.0000000E+000	0.0000000E+000	-0.751279	76.2599	89.2487	2.90149e-06
49352.4	8.81157	0.0450219	8.81168	-0.292745	204.798	0.449542	0.0184107	71.6289	0.0018699	1	10	0.0106167	0.00120484	0	4.3419e-05	0.113484	0.000579838	0.113486	0.292745	1.86992	365.972	365.977	-89.7073	0.0000000E+000	0.0000000E+000	0.0000000E+000	89.7073	0.0000000E+000	0.0000000E+000	0.0000000E+000	-89.7073	0.0000000E+000	0.0000000E+000	0.0000000E+000	-0.292745	0.0000000E+000	0.0000000E+000	0.0000000E+000	0.292745	195.717	89.7073	6.573e-07
22806.6	8.8347	0.10522	8.83532	-0.68235	205.643	0.449563	0.0180434	66.3229	0.00940615	1	10	0.0104988	0.00118828	0	4.66149e-05	0.113174	0.00134788	0.113182	0.68235	9.40616	789.782	789.838	-89.3177	0.0000000E+000	0.0000000E+000	0.0000000E+000	89.3177	0.0000000E+000	0.0000000E+000	0.0000000E+000	-89.3177	0.0000000E+000	0.0000000E+000	0.0000000E+000	-0.68235	0.0000000E+000	0.0000000E+000	0.0000000E+000	0.68235	83.9644	89.3177	1.10006e-06
10540.4	8.86291	0.16553	8.86446	-1.06997	206.488	0.449559	0.0190427	91.2195	0.0318079	1	10	0.0103199	0.00116419	0	4.80494e-05	0.11279	0.00210655	0.11281	1.06997	31.8079	1703.08	1703.38	-88.93	0.0000000E+000	0.0000000E+000	0.0000000E+000	88.93	0.0000000E+000	0.0000000E+000	0.0000000E+000	-88.93	0.0000000E+000	0.0000000E+000	0.0000000E+000	-1.06997	0.0000000E+000	0.0000000E+000	0.0000000E+000	1.06997	53.5427	88.93	1.47881e-06
4871.56	8.90632	0.26497	8.91026	-1.70409	207.48	0.449553	0.0189999	123.298	0.109036	1	10	0.0108474	0.0012174	0	5.11188e-05	0.112181	0.00333746	0.11223	1.70409	109.036	3664.96	3666.59	-88.2959	0.0000000E+000	0.0000000E+000	0.0000000E+000	88.2959	0.0000000E+000	0.0000000E+000	0.0000000E+000	-88.2959	0.0000000E+000	0.0000000E+000	0.0000000E+000	-1.70409	0.0000000E+000	0.0000000E+000	0.0000000E+000	1.70409	33.6125	88.2959	2.34785e-06
2250.72	8.96275	0.473156	8.97523	-3.02192	208.632	0.449555	0.0185803	149.449	0.415348	1	10	0.0103299	0.00115093	0	5.61856e-05	0.111263	0.00587372	0.111418	3.02192	415.348	7867.72	7878.67	-86.9781	0.0000000E+000	0.0000000E+000	0.0000000E+000	86.9781	0.0000000E+000	0.0000000E+000	0.0000000E+000	-86.9781	0.0000000E+000	0.0000000E+000	0.0000000E+000	-3.02192	0.0000000E+000	0.0000000E+000	0.0000000E+000	3.02192	18.9425	86.9781	1.65515e-06
1040.33	9.05828	0.905624	9.10344	-5.70931	209.562	0.449555	0.0184797	168.927	1.6718	1	10	0.0104546	0.00114842	0	6.00671e-05	0.109304	0.0109279	0.109849	5.70931	1671.8	16721.8	16805.1	-84.2907	0.0000000E+000	0.0000000E+000	0.0000000E+000	84.2907	0.0000000E+000	0.0000000E+000	0.0000000E+000	-84.2907	0.0000000E+000	0.0000000E+000	0.0000000E+000	-5.70931	0.0000000E+000	0.0000000E+000	0.0000000E+000	5.70931	10.0023	84.2907	2.47002e-06
480.769	9.16543	1.77377	9.33549	-10.953	210.493	0.449557	0.0178028	186.632	6.73763	1	10	0.0104696	0.00112148	0	6.39221e-05	0.105167	0.0203528	0.107118	10.953	6737.63	34814.7	35460.6	-79.047	0.0000000E+000	0.0000000E+000	0.0000000E+000	79.047	0.0000000E+000	0.0000000E+000	0.0000000E+000	-79.047	0.0000000E+000	0.0000000E+000	0.0000000E+000	-10.953	0.0000000E+000	0.0000000E+000	0.0000000E+000	10.953	5.1672	79.047	1.99088e-06
222.061	9.3615	3.58428	10.0242	-20.9506	211.417	0.449548	0.0176033	199.961	25.5653	1	10	0.0104813	0.0010456	0	6.87596e-05	0.0931634	0.0356699	0.0997585	20.9506	25565.3	66771.9	71498.7	-69.0494	0.0000000E+000	0.0000000E+000	0.0000000E+000	69.0494	0.0000000E+000	0.0000000E+000	0.0000000E+000	-69.0494	0.0000000E+000	0.0000000E+000	0.0000000E+000	-20.9506	0.0000000E+000	0.0000000E+000	0.0000000E+000	20.9506	2.61182	69.0494	3.21243e-06
102.667	9.67546	7.3788	12.168	-37.3302	212.354	0.449552	0.0183529	210.089	77.256	1	10	0.0104759	0.000860934	0	7.23188e-05	0.0653477	0.0498361	0.0821825	37.3302	77256	101302	127399	-52.6698	0.0000000E+000	0.0000000E+000	0.0000000E+000	52.6698	0.0000000E+000	0.0000000E+000	0.0000000E+000	-52.6698	0.0000000E+000	0.0000000E+000	0.0000000E+000	-37.3302	0.0000000E+000	0.0000000E+000	0.0000000E+000	37.3302	1.31125	52.6698	1.77094e-06
47.4443	10.2579	15.3629	18.4728	-56.2687	213.265	0.44954	0.0171092	218.355	151.024	1	10	0.0104691	0.000566732	0	7.60831e-05	0.0300604	0.0450204	0.0541337	56.2687	151024	100839	181595	-33.7313	0.0000000E+000	0.0000000E+000	0.0000000E+000	33.7313	0.0000000E+000	0.0000000E+000	0.0000000E+000	-33.7313	0.0000000E+000	0.0000000E+000	0.0000000E+000	-56.2687	0.0000000E+000	0.0000000E+000	0.0000000E+000	56.2687	0.667706	33.7313	1.65002e-06
21.9144	11.4039	32.0862	34.0525	-70.4341	214.372	0.449544	0.00044781	226.345	200.96	1	11	0.010472	0.000307524	0	7.71565e-05	0.00983455	0.0276707	0.0293665	70.4341	200960	71424	213276	-19.5659	0.0000000E+000	0.0000000E+000	0.0000000E+000	19.5659	0.0000000E+000	0.0000000E+000	0.0000000E+000	-19.5659	0.0000000E+000	0.0000000E+000	0.0000000E+000	-70.4341	0.0000000E+000	0.0000000E+000	0.0000000E+000	70.4341	0.355413	19.5659	6.88873e-07
10.1329	14.4189	66.931	68.4665	-77.8426	215.299	0.449566	0.000816225	234.67	224.262	1	11	0.0104552	0.000152705	0	7.78193e-05	0.00307593	0.0142781	0.0146057	77.8426	224262	48312.6	229407	-12.1574	0.0000000E+000	0.0000000E+000	0.0000000E+000	12.1574	0.0000000E+000	0.0000000E+000	0.0000000E+000	-12.1574	0.0000000E+000	0.0000000E+000	0.0000000E+000	-77.8426	0.0000000E+000	0.0000000E+000	0.0000000E+000	77.8426	0.215429	12.1574	2.4871e-07
4.68375	18.7426	140.724	141.967	-82.4136	216.415	0.449577	0.000154251	241.467	237.258	1	12	0.0104686	7.37397e-05	0	7.76974e-05	0.000929943	0.00698224	0.0070439	82.4136	237258	31599.6	239353	-7.5864	0.0000000E+000	0.0000000E+000	0.0000000E+000	7.5864	0.0000000E+000	0.0000000E+000	0.0000000E+000	-7.5864	0.0000000E+000	0.0000000E+000	0.0000000E+000	-82.4136	0.0000000E+000	0.0000000E+000	0.0000000E+000	82.4136	0.133187	7.5864	5.86051e-07
2.16533	28.1906	294.185	295.532	-84.5263	218.131	0.449574	0.000347277	249.848	247.575	1	12	0.0104582	3.53875e-05	0	7.6814e-05	0.000322771	0.0033683	0.00338373	84.5263	247575	23724.2	248709	-5.47373	0.0000000E+000	0.0000000E+000	0.0000000E+000	5.47373	0.0000000E+000	0.0000000E+000	0.0000000E+000	-5.47373	0.0000000E+000	0.0000000E+000	0.0000000E+000	-84.5263	0.0000000E+000	0.0000000E+000	0.0000000E+000	84.5263	0.0958264	5.47372	-6.96523e-07
1.00006	48.1349	617.141	619.016	-85.5402	222.471	0.449574	0.00010852	257.874	256.315	1	13	0.010458	1.68945e-05	0	7.74101e-05	0.000125619	0.00161058	0.00161547	85.5402	256315	19991.7	257093	-4.45985	0.0000000E+000	0.0000000E+000	0.0000000E+000	4.45985	0.0000000E+000	0.0000000E+000	0.0000000E+000	-4.45985	0.0000000E+000	0.0000000E+000	0.0000000E+000	-85.5402	0.0000000E+000	0.0000000E+000	0.0000000E+000	85.5402	0.0779966	4.45984	6.10728e-07

File: 20251112_2-148_006_gamma_reproducibility_2_K2_03_CVA_C02.mpt
EC-Lab ASCII FILE
Nb header lines : 66

Cyclic Voltammetry Advanced

Run on channel : 2 (SN 69290)
User :
CE vs. WE compliance from -10 V to 10 V
Electrode connection : standard
Potential control : Ewe
Ewe ctrl range : min = -1.00 V, max = 1.00 V
Safety Limits :
	Do not start on E overload
Acquisition started on : 11/12/2025 20:23:02.181
Loaded Setting File :  C:\Users\User\Documents\EC-Lab\Data\Yatsuzuka\20251112_2-148_alpha_reproducibility\20251112_2-148_002_alpha_reproducibility_2_K1.mps
Saved on :
	File : 20251112_2-148_006_gamma_reproducibility_2_K2_r_03_CVA_C02.mpr
	Directory : C:\Users\User\Documents\EC-Lab\Data\Yatsuzuka\20251112_2-148_alpha_reproducibility\
	Host : 192.109.209.127
Device : SP-150e (SN .003883)
Address : 192.109.209.128
EC-Lab for windows v11.52 (software)
Internet server v11.52 (firmware)
Command interpretor v11.50 (firmware)
Electrode material :
Initial state :
Electrolyte :
Comments :
Electrode surface area : 0.001 cm2
Characteristic mass : 0.001 g
Equivalent Weight : 0.000 g/eq.
Density : 0.000 g/cm3
Volume (V) : 0.001 cm3
Cycle Definition : Charge/Discharge alternance
Ei (V)              0.450
vs.                 Ref
ti (h:m:s)          0:00:10.0000
dti (s)             0.0000
dE/dt               5.000
dE/dt unit          mV/s
E1 (V)              0.700
vs.                 Ref
t1 (h:m:s)          0:00:0.0000
dt1 (s)             0.1000
Step percent        50
N                   10
E range min (V)     -1.000
E range max (V)     1.000
I Range             10 mA
I Range min         Unset
I Range max         Unset
I Range init        Unset
Bandwidth           5
E2 (V)              0.450
vs.                 Ref
t2 (h:m:s)          0:00:0.0000
dt2 (s)             0.1000
nc cycles           14
nr                  1
Reverse Scan        0
Ef (V)              0.000
vs.                 Eoc
tf (h:m:s)          0:00:0.0000
dtf (s)             0.1000

mode	ox/red	error	control changes	Ns changes	counter inc.	time/s	control/V	Ewe/V	<I>/mA	cycle number	(Q-Qo)/C	I Range	Ns	step time/s	P/W
2	1	0	0	0	0	232.601	0.450021	0.44963	0.0059486	1	0.0000000E+000	11	0	0.000000000000000E+000	2.67467e-06
2	1	0	1	0	0	245.541	0.514718	0.514282	0.00319353	1	4.34284e-05	11	0	12.8847	1.64238e-06
2	1	0	1	0	0	258.526	0.579642	0.579203	0.00404088	1	9.01357e-05	11	0	25.8694	2.34049e-06
2	1	0	0	0	0	271.51	0.644565	0.644094	0.0443749	1	0.000265487	11	0	38.854	2.85816e-05
2	1	0	0	0	0	284.246	0.691759	0.691336	0.335663	1	0.00299918	11	0	51.5892	0.000232056
2	1	0	1	0	0	297.23	0.626836	0.626386	0.0153663	1	0.00457371	11	0	64.5738	9.62521e-06
2	0	0	0	0	0	310.215	0.561913	0.561464	0.000569207	1	0.00462147	11	0	77.5584	3.19589e-07
2	0	0	1	0	0	323.199	0.49699	0.496491	0.000113872	1	0.00462404	11	0	0.0999	5.65364e-08
2	1	0	1	0	1	335.953	0.466825	0.466336	0.0027835	2	0.00463262	11	0	3.3611	1.29804e-06
2	1	0	1	0	1	348.938	0.531748	0.531355	0.00274002	2	0.00467011	11	0	16.3457	1.45592e-06
2	1	0	1	0	1	361.923	0.596671	0.596222	0.00453481	2	0.0047131	11	0	29.3303	2.70375e-06
2	1	0	1	0	1	374.907	0.661594	0.661189	0.105599	2	0.00511174	11	0	42.3149	6.98209e-05
2	1	0	0	0	1	387.633	0.674779	0.674337	0.181832	2	0.00851906	11	0	55.0402	0.000122616
2	1	0	1	0	1	400.617	0.609856	0.60942	0.0050199	2	0.009259	11	0	68.0248	3.05923e-06
2	1	0	0	0	1	413.602	0.544933	0.544506	0.000338522	2	0.00927551	11	0	81.0094	1.84328e-07
2	1	0	1	0	1	426.586	0.48001	0.479551	8.31876e-05	2	0.0092762	11	0	0.000000000000000E+000	3.98927e-08
2	1	0	1	0	0	439.34	0.483806	0.483382	0.00265588	3	0.00929418	11	0	6.7571	1.2838e-06
2	1	0	1	0	0	452.325	0.548729	0.548306	0.00273081	3	0.00933121	11	0	19.7417	1.49732e-06
2	1	0	1	0	0	465.31	0.613651	0.613202	0.00819488	3	0.0093844	11	0	32.7263	5.02512e-06
2	1	0	1	0	0	478.294	0.678574	0.678149	0.216749	3	0.0102937	11	0	45.7109	0.000146988
2	1	0	1	0	0	491.019	0.6578	0.657386	0.0874437	3	0.0136104	11	0	58.4361	5.74842e-05
2	1	0	1	0	0	504.004	0.592876	0.592409	0.00172344	3	0.0139135	11	0	71.4208	1.02098e-06
2	0	0	0	0	0	516.989	0.527953	0.527483	0.000232783	3	0.0139205	11	0	0.4994	1.22789e-07
2	1	0	1	0	0	529.973	0.46303	0.462544	1.4387e-05	3	0.0139203	11	0	0.5993	6.65463e-09
2	1	0	1	0	1	542.727	0.500786	0.500308	0.00257563	4	0.0139482	11	0	10.1431	1.28861e-06
2	1	0	1	0	1	555.712	0.565709	0.565234	0.00290642	4	0.0139849	11	0	23.1277	1.64281e-06
2	1	0	1	0	1	568.697	0.630632	0.630192	0.02006	4	0.0140713	11	0	36.1123	1.26416e-05
2	1	0	1	0	1	581.681	0.695555	0.6951	0.388477	4	0.015946	11	0	49.0969	0.000270031
2	1	0	1	0	1	594.406	0.64082	0.6404	0.0349802	4	0.0184522	11	0	61.8221	2.24013e-05
2	1	0	1	0	1	607.391	0.575897	0.575414	0.000837484	4	0.018559	11	0	74.8067	4.819e-07
2	1	0	1	0	1	620.376	0.510974	0.510467	0.000151251	4	0.0185616	11	0	0.1997	7.72089e-08
2	1	0	1	0	0	633.13	0.452842	0.452382	0.00242638	5	0.0185612	11	0	0.5544	1.09765e-06
2	1	0	0	0	0	646.114	0.517765	0.517325	0.00265383	5	0.0185966	11	0	13.539	1.37289e-06
2	1	0	1	0	0	659.099	0.582688	0.582255	0.0032948	5	0.0186343	11	0	26.5236	1.91841e-06
2	1	0	0	0	0	672.084	0.647611	0.647153	0.0513941	5	0.018822	11	0	39.5082	3.32598e-05
2	1	0	1	0	0	684.809	0.688762	0.688319	0.304134	5	0.0217731	11	0	52.2335	0.000209342
2	1	0	1	0	0	697.793	0.623839	0.623415	0.0117586	5	0.0231548	11	0	65.2181	7.33048e-06
2	1	0	1	0	0	710.778	0.558916	0.558511	0.000493926	5	0.02319	11	0	78.2027	2.75863e-07
2	0	0	1	0	0	723.763	0.493994	0.493534	6.52008e-05	5	0.0231916	11	0	0.000000000000000E+000	3.21788e-08
2	0	0	1	0	1	736.517	0.469822	0.469374	0.00264345	6	0.0232014	11	0	3.9504	1.24077e-06
2	1	0	0	0	1	749.501	0.534745	0.534291	0.00262204	6	0.0232374	11	0	16.935	1.40093e-06
2	1	0	1	0	1	762.486	0.599668	0.599239	0.00452402	6	0.0232793	11	0	29.9196	2.71097e-06
2	1	0	0	0	1	775.471	0.664591	0.664127	0.120324	6	0.0237313	11	0	42.9042	7.99106e-05
2	1	0	1	0	1	788.196	0.671782	0.671333	0.160739	6	0.0271806	11	0	55.6295	0.000107909
2	1	0	1	0	1	801.18	0.606859	0.606391	0.00384483	6	0.0278079	11	0	68.6141	2.33147e-06
2	1	0	1	0	1	814.165	0.541936	0.541507	0.00038019	6	0.0278216	11	0	81.5987	2.05875e-07
2	1	0	1	0	1	827.15	0.477013	0.476595	0.000171176	6	0.0278229	11	0	0.0999	8.15817e-08
2	1	0	1	0	0	839.904	0.486802	0.486371	0.00269364	7	0.0278429	11	0	7.3854	1.31011e-06
2	1	0	0	0	0	852.888	0.551725	0.551265	0.00274102	7	0.0278794	11	0	20.37	1.51103e-06
2	1	0	1	0	0	865.873	0.616648	0.616179	0.00900658	7	0.0279341	11	0	33.3546	5.54967e-06
2	1	0	0	0	0	878.858	0.681571	0.681158	0.240892	7	0.028957	11	0	46.3392	0.000164086
2	1	0	1	0	0	891.583	0.654802	0.654348	0.0733998	7	0.0321823	11	0	59.0645	4.8029e-05
2	1	0	1	0	0	904.567	0.589879	0.589383	0.0015251	7	0.0324279	11	0	72.0491	8.9887e-07
2	0	0	1	0	0	917.552	0.524956	0.52453	0.000316366	7	0.0324344	11	0	85.0337	1.65944e-07
2	1	0	1	0	0	930.537	0.460033	0.459578	3.82596e-05	7	0.0324348	11	0	0.6992	1.75833e-08
2	0	0	1	0	1	943.291	0.503781	0.503328	0.0027068	8	0.0324644	11	0	10.7523	1.36241e-06
2	1	0	1	0	1	956.275	0.568704	0.568271	0.00288939	8	0.0325014	11	0	23.7369	1.64196e-06
2	1	0	1	0	1	969.26	0.633628	0.633174	0.0226626	8	0.0325949	11	0	36.7216	1.43494e-05
2	1	0	0	0	1	982.245	0.698551	0.698136	0.421846	8	0.0346738	11	0	49.7062	0.000294506
2	1	0	0	0	1	994.97	0.637823	0.637384	0.02774	8	0.0369626	11	0	62.4314	1.7681e-05
2	1	0	1	0	1	1007.95	0.5729	0.572467	0.000776491	8	0.0370468	11	0	75.416	4.44515e-07
[...]
2	1	0	0	0	1	1227.71	0.474017	0.473562	8.2599e-05	10	0.0461843	11	0	0.000000000000000E+000	3.91157e-08
2	1	0	1	0	0	1240.47	0.489799	0.489358	0.00268599	11	0.0462054	11	0	7.9457	1.31441e-06
2	1	0	1	0	0	1253.45	0.554722	0.554261	0.00267028	11	0.0462414	11	0	20.9303	1.48003e-06
2	1	0	1	0	0	1266.44	0.619645	0.619194	0.00986534	11	0.0462974	11	0	33.9149	6.10856e-06
2	1	0	1	0	0	1279.42	0.684568	0.684114	0.267273	11	0.0474455	11	0	46.8995	0.000182845
2	1	0	1	0	0	1292.15	0.651807	0.651332	0.0614806	11	0.0505477	11	0	59.6247	4.00442e-05
2	1	0	1	0	0	1305.13	0.586884	0.586418	0.00113085	11	0.0507442	11	0	72.6093	6.63151e-07
2	1	0	1	0	0	1318.12	0.52196	0.521517	0.000239626	11	0.0507492	11	0	85.594	1.24969e-07
2	0	0	0	0	0	1331.1	0.457037	0.456617	2.98161e-06	11	0.0507495	11	0	0.000000000000000E+000	1.36145e-09
2	1	0	1	0	1	1343.85	0.506778	0.506338	0.00257035	12	0.0507803	11	0	11.3516	1.30147e-06
2	1	0	1	0	1	1356.84	0.571702	0.571234	0.00288024	12	0.0508165	11	0	24.3363	1.64529e-06
2	1	0	1	0	1	1369.82	0.636625	0.636213	0.0258945	12	0.050919	11	0	37.3209	1.64744e-05
2	1	0	1	0	1	1382.55	0.699749	0.699305	0.432399	12	0.0530972	11	0	50.0461	0.000302378
2	1	0	1	0	1	1395.53	0.634826	0.634417	0.0222947	12	0.0552131	11	0	63.0307	1.41441e-05
2	1	0	1	0	1	1408.52	0.569903	0.569458	0.000594375	12	0.0552784	11	0	76.0153	3.38471e-07
2	1	0	1	0	1	1421.5	0.504981	0.50457	0.000271169	12	0.0552813	11	0	0.2996	1.36824e-07
2	1	0	0	0	0	1434.26	0.458835	0.45839	0.00253462	13	0.0552851	11	0	1.763	1.16185e-06
2	1	0	1	0	0	1447.24	0.523758	0.52331	0.00252211	13	0.0553198	11	0	14.7476	1.31985e-06
2	1	0	0	0	0	1460.23	0.588681	0.588222	0.00329996	13	0.0553571	11	0	27.7322	1.94111e-06
2	1	0	1	0	0	1473.21	0.653604	0.653179	0.0669258	13	0.0555952	11	0	40.7168	4.37145e-05
2	1	0	1	0	0	1485.94	0.682769	0.682376	0.245379	13	0.058755	11	0	53.4421	0.000167441
2	1	0	1	0	0	1498.92	0.617846	0.617407	0.00695059	13	0.0597785	11	0	66.4267	4.29135e-06
2	1	0	1	0	0	1511.9	0.552923	0.552457	0.000458453	13	0.0598003	11	0	79.4113	2.53276e-07
2	0	0	1	0	0	1524.89	0.488	0.487495	7.31662e-05	13	0.0598018	11	0	0.0999	3.56681e-08
2	1	0	0	0	1	1537.64	0.475815	0.4754	0.0025138	14	0.0598145	11	0	5.159	1.19506e-06
2	0	0	1	0	1	1550.63	0.540738	0.540305	0.00261527	14	0.0598499	11	0	18.1436	1.41304e-06
2	1	0	0	0	1	1563.61	0.605661	0.605198	0.00515103	14	0.0598927	11	0	31.1282	3.11739e-06
2	1	0	1	0	1	1576.6	0.670584	0.670182	0.151572	14	0.0604711	11	0	44.1128	0.000101581
2	1	0	1	0	1	1589.32	0.665789	0.665388	0.121884	14	0.0638668	11	0	56.8381	8.11004e-05
2	1	0	1	0	1	1602.31	0.600866	0.600458	0.00230138	14	0.0642971	11	0	69.8227	1.38188e-06
2	0	0	1	0	1	1615.29	0.535943	0.535499	0.000380839	14	0.0643059	11	0	82.8073	2.03939e-07
2	1	0	1	0	1	1628.28	0.47102	0.470573	1.16393e-05	14	0.0643066	11	0	0.3996	5.47713e-09
2	1	0	1	0	0	1641.03	0.492794	0.492353	0.00255934	15	0.0643292	11	0	8.5449	1.2601e-06
2	1	0	1	0	0	1654.01	0.557717	0.557314	0.00264248	15	0.0643651	11	0	21.5295	1.47269e-06
2	1	0	0	0	0	1667	0.622641	0.622217	0.011281	15	0.0644249	11	0	34.5142	7.01926e-06
2	1	0	1	0	0	1679.98	0.687564	0.687164	0.293415	15	0.0657141	11	0	47.4988	0.000201624
2	1	0	1	0	0	1692.71	0.64881	0.648359	0.0497748	15	0.0686278	11	0	60.224	3.22719e-05
2	1	0	0	0	0	1705.69	0.583887	0.583435	0.000957757	15	0.0687838	11	0	73.2086	5.58789e-07
2	1	0	1	0	0	1718.68	0.518964	0.518544	0.000210102	15	0.0687881	11	0	86.1932	1.08947e-07
2	1	0	1	0	0	1731.66	0.45404	0.45362	-2.53089e-05	15	0.0687877	11	0	0.000000000000000E+000	-1.14806e-08
2	1	0	1	0	0	1732.47	0.450021	0.44942	-0.000961977	15	0.0687876	11	0	0.000000000000000E+000	-4.32332e-07