Folder: SI_for_publications/ACS_Catal_2026/Figures_Na_K/main_figures/data/EC/20251112_2-148_alpha_reproducibility (part 34)

File: 20251112_2-148_006_gamma_reproducibility_2_K2_stopped_01_CVA_C02.mpt
EC-Lab ASCII FILE
Nb header lines : 66

Cyclic Voltammetry Advanced

Run on channel : 2 (SN 69290)
User :
CE vs. WE compliance from -10 V to 10 V
Electrode connection : standard
Potential control : Ewe
Ewe ctrl range : min = -1.00 V, max = 1.00 V
Safety Limits :
	Do not start on E overload
Acquisition started on : 11/12/2025 20:20:55.800
Loaded Setting File :  C:\Users\User\Documents\EC-Lab\Data\Yatsuzuka\20251112_2-148_alpha_reproducibility\20251112_2-148_002_alpha_reproducibility_2_K1.mps
Saved on :
	File : 20251112_2-148_006_gamma_reproducibility_2_K2_01_CVA_C02.mpr
	Directory : C:\Users\User\Documents\EC-Lab\Data\Yatsuzuka\20251112_2-148_alpha_reproducibility\
	Host : 192.109.209.127
Device : SP-150e (SN .003883)
Address : 192.109.209.128
EC-Lab for windows v11.52 (software)
Internet server v11.52 (firmware)
Command interpretor v11.50 (firmware)
Electrode material :
Initial state :
Electrolyte :
Comments :
Electrode surface area : 0.001 cm2
Characteristic mass : 0.001 g
Equivalent Weight : 0.000 g/eq.
Density : 0.000 g/cm3
Volume (V) : 0.001 cm3
Cycle Definition : Charge/Discharge alternance
Ei (V)              0.350
vs.                 Ref
ti (h:m:s)          0:00:10.0000
dti (s)             0.0000
dE/dt               10.000
dE/dt unit          mV/s
E1 (V)              0.450
vs.                 Ref
t1 (h:m:s)          0:00:0.0000
dt1 (s)             0.1000
Step percent        50
N                   10
E range min (V)     -1.000
E range max (V)     1.000
I Range             Auto
I Range min         Unset
I Range max         Unset
I Range init        Unset
Bandwidth           5
E2 (V)              0.350
vs.                 Ref
t2 (h:m:s)          0:00:0.0000
dt2 (s)             0.1000
nc cycles           9
nr                  1
Reverse Scan        0
Ef (V)              0.000
vs.                 Eoc
tf (h:m:s)          0:00:0.0000
dtf (s)             0.1000

mode	ox/red	error	control changes	Ns changes	counter inc.	time/s	control/V	Ewe/V	<I>/mA	cycle number	(Q-Qo)/C	I Range	Ns	step time/s	P/W
2	0	0	0	0	0	0.000000000000000E+000	0.349989	0.348847	-74.8065	1	0.0000000E+000	9	0	0.000000000000000E+000	-0.026096
2	0	0	1	0	0	0.0775	0.350763	0.351342	-1.59217	1	0.000194232	9	0	0.05	-0.000559396
2	0	0	1	0	0	0.1774	0.351763	0.351645	-1.50704	1	0.00027973	9	0	0.000000000000000E+000	-0.000529942
2	0	0	1	0	0	0.2773	0.352761	0.351577	-1.70424	1	0.000364711	9	0	0.000000000000000E+000	-0.00059917
2	0	0	1	0	0	0.3771	0.35376	0.35312	-1.66748	1	0.000463649	9	0	0.000000000000000E+000	-0.000588821
2	0	0	1	0	0	0.4771	0.354758	0.354025	-1.73062	1	0.000555368	9	0	0.000000000000000E+000	-0.000612681
2	0	0	1	0	0	0.5769	0.355757	0.356207	-1.59071	1	0.000652635	9	0	0.000000000000000E+000	-0.000566623
2	0	0	1	0	0	0.6768	0.356756	0.356673	-1.40754	1	0.000745623	9	0	0.000000000000000E+000	-0.000502031
2	0	0	1	0	0	0.7767	0.357755	0.357537	-1.12732	1	0.000837299	9	0	0.000000000000000E+000	-0.000403057
2	0	0	1	0	0	0.8765	0.358754	0.358816	-1.02887	1	0.000941787	9	0	0.000000000000000E+000	-0.000369176
2	0	0	1	0	0	0.9765	0.359752	0.359855	-1.25564	1	0.0010094	9	0	0.000000000000000E+000	-0.000451849
2	0	0	1	0	0	1.0763	0.360751	0.361101	-0.851968	1	0.00114779	9	0	0.000000000000000E+000	-0.000307647
2	0	0	1	0	0	1.1762	0.36175	0.360935	-1.29444	1	0.00128061	9	0	0.000000000000000E+000	-0.000467209
2	0	0	1	0	0	1.2761	0.362749	0.361866	-1.07056	1	0.00138938	9	0	0.000000000000000E+000	-0.0003874
2	0	0	1	0	0	1.3759	0.363748	0.363141	-0.815644	1	0.00151019	9	0	0.000000000000000E+000	-0.000296193
2	0	0	1	0	0	1.4759	0.364747	0.364877	-0.690375	1	0.00162743	9	0	0.000000000000000E+000	-0.000251902
2	0	0	1	0	0	1.5757	0.365745	0.366679	-0.709744	1	0.00174292	9	0	0.000000000000000E+000	-0.000260249
2	0	0	1	0	0	1.6756	0.366744	0.366954	-0.606072	1	0.00184569	9	0	0.000000000000000E+000	-0.0002224
2	0	0	1	0	0	1.7755	0.367743	0.367608	-0.659124	1	0.0019578	9	0	0.000000000000000E+000	-0.000242299
2	0	0	1	0	0	1.8753	0.368742	0.36854	-0.934436	1	0.00205902	9	0	0.000000000000000E+000	-0.000344377
2	0	0	1	0	0	1.9753	0.369741	0.369812	-0.710883	1	0.00218017	9	0	0.000000000000000E+000	-0.000262893
2	0	0	1	0	0	2.0751	0.370739	0.370056	-0.461191	1	0.00231823	9	0	0.000000000000000E+000	-0.000170666
2	0	0	1	0	0	2.175	0.371738	0.371729	0.0279297	1	0.00245275	9	0	0.000000000000000E+000	1.03823e-05
2	0	0	1	0	0	2.2749	0.372737	0.372431	-0.124784	1	0.00258614	9	0	0.000000000000000E+000	-4.64734e-05
2	0	0	1	0	0	2.3748	0.373737	0.373522	-0.382641	1	0.00272541	9	0	0.000000000000000E+000	-0.000142925
2	0	0	1	0	0	2.4747	0.374735	0.374171	-0.578174	1	0.00284729	9	0	0.000000000000000E+000	-0.000216336
2	0	0	1	0	0	2.5745	0.375733	0.37545	-0.539266	1	0.00297096	9	0	0.000000000000000E+000	-0.000202468
2	0	0	1	0	0	2.6744	0.376731	0.376475	-0.422743	1	0.00309476	9	0	0.000000000000000E+000	-0.000159152
2	0	0	1	0	0	2.7743	0.377731	0.377994	-0.543355	1	0.00319955	9	0	0.000000000000000E+000	-0.000205385
2	0	0	1	0	0	2.8742	0.37873	0.378132	-0.256436	1	0.0032572	9	0	0.000000000000000E+000	-9.69667e-05
2	0	0	1	0	0	2.9741	0.379729	0.378433	0.268099	1	0.00337772	9	0	0.000000000000000E+000	0.000101457
2	0	0	1	0	0	3.0739	0.380728	0.379968	-0.0989586	1	0.00353022	9	0	0.000000000000000E+000	-3.76011e-05
2	0	0	1	0	0	3.1739	0.381726	0.381127	0.273572	1	0.00366767	9	0	0.000000000000000E+000	0.000104266
2	0	0	1	0	0	3.2737	0.382725	0.382949	0.238047	1	0.00391315	9	0	0.000000000000000E+000	9.11599e-05
2	0	0	1	0	0	3.3736	0.383724	0.384465	-0.438331	1	0.00396789	9	0	0.000000000000000E+000	-0.000168523
2	0	0	1	0	0	3.4735	0.384723	0.38472	-0.559726	1	0.00398079	9	0	0.000000000000000E+000	-0.000215338
2	0	0	1	0	0	3.5733	0.385722	0.385566	-0.256678	1	0.00405078	9	0	0.000000000000000E+000	-9.89665e-05
2	0	0	1	0	0	3.6733	0.38672	0.386151	1.71744	1	0.00425447	9	0	0.000000000000000E+000	0.000663192
2	0	0	1	0	0	3.7731	0.387719	0.387014	-0.541449	1	0.00441873	9	0	0.000000000000000E+000	-0.000209548
2	0	0	1	0	0	3.873	0.388718	0.388302	1.78009	1	0.00462146	9	0	0.000000000000000E+000	0.000691213
2	1	0	1	0	0	3.9729	0.389717	0.389478	0.553501	1	0.00503726	9	0	0.0999	0.000215577
2	0	0	1	0	0	4.0727	0.390716	0.390745	-0.265302	1	0.00525687	9	0	0.000000000000000E+000	-0.000103665
2	0	0	1	0	0	4.1727	0.391715	0.391428	-1.1926	1	0.00531531	9	0	0.000000000000000E+000	-0.000466818
2	1	0	1	0	0	4.2725	0.392713	0.393264	-0.717322	1	0.00538434	9	0	0.000000000000000E+000	-0.000282097
2	0	0	1	0	0	4.3724	0.393712	0.393377	0.0991709	1	0.0054935	9	0	0.000000000000000E+000	3.90116e-05
2	1	0	1	0	0	4.4723	0.394711	0.395596	3.19705	1	0.00579113	9	0	0.000000000000000E+000	0.00126474
2	1	0	1	0	0	4.5721	0.39571	0.394358	-0.0955632	1	0.00618947	9	0	0.0998	-3.76861e-05
2	0	0	1	0	0	4.6721	0.396709	0.396105	0.600232	1	0.00631637	9	0	0.000000000000000E+000	0.000237755
2	0	0	1	0	0	4.7719	0.397707	0.39837	0.695755	1	0.00646363	9	0	0.000000000000000E+000	0.000277168
2	0	0	1	0	0	4.8718	0.398706	0.398501	0.527843	1	0.00659784	9	0	0.000000000000000E+000	0.000210346
2	0	0	1	0	0	4.9717	0.399705	0.399995	0.41947	1	0.00672836	9	0	0.000000000000000E+000	0.000167786
2	0	0	1	0	0	5.0716	0.400705	0.400513	0.229362	1	0.0068685	9	0	0.000000000000000E+000	9.18623e-05
2	0	0	1	0	0	5.1715	0.401703	0.401239	0.350387	1	0.00700325	9	0	0.000000000000000E+000	0.000140589
2	1	0	1	0	0	5.2713	0.402702	0.402466	0.691758	1	0.00714956	9	0	0.000000000000000E+000	0.000278409
2	0	0	1	0	0	5.3712	0.403699	0.403205	0.761934	1	0.00729646	9	0	0.000000000000000E+000	0.000307216
2	0	0	1	0	0	5.4711	0.404699	0.403222	0.811924	1	0.00744533	9	0	0.000000000000000E+000	0.000327386
2	0	0	1	0	0	5.571	0.405698	0.404898	0.773995	1	0.00759759	9	0	0.000000000000000E+000	0.000313389
2	0	0	1	0	0	5.6709	0.406697	0.407237	0.503295	1	0.00774882	9	0	0.000000000000000E+000	0.00020496
2	1	0	1	0	0	5.7707	0.407696	0.407561	0.683795	1	0.00790727	9	0	0.000000000000000E+000	0.000278688
2	0	0	1	0	0	5.8707	0.408694	0.407662	0.726884	1	0.00806163	9	0	0.000000000000000E+000	0.000296323
2	1	0	1	0	0	5.9705	0.409693	0.409651	0.970657	1	0.00822117	9	0	0.000000000000000E+000	0.000397631
2	0	0	1	0	0	6.0704	0.410692	0.409819	0.822169	1	0.00837763	9	0	0.000000000000000E+000	0.000336941
2	0	0	1	0	0	6.1703	0.411691	0.412179	0.848048	1	0.0085272	9	0	0.000000000000000E+000	0.000349547
2	1	0	1	0	0	6.2701	0.41269	0.410235	0.873489	1	0.0086886	9	0	0.000000000000000E+000	0.000358336
2	0	0	1	0	0	6.3701	0.413688	0.41324	0.733048	1	0.00885748	9	0	0.000000000000000E+000	0.000302924
2	1	0	1	0	0	6.4599	0.414587	0.414267	0.52488	1	0.00901971	9	0	0.000000000000000E+000	0.000217441
2	0	0	1	0	0	6.4758	0.414762	0.413441	-60.2552	1	0.00875186	9	0	0.000000000000000E+000	-0.024912

File: 20251112_2-148_006_gamma_reproducibility_2_Na1_01_CVA_C02.mpt
EC-Lab ASCII FILE
Nb header lines : 66

Cyclic Voltammetry Advanced

Run on channel : 2 (SN 69290)
User :
CE vs. WE compliance from -10 V to 10 V
Electrode connection : standard
Potential control : Ewe
Ewe ctrl range : min = -1.00 V, max = 1.00 V
Safety Limits :
	Do not start on E overload
Acquisition started on : 11/12/2025 19:49:32.045
Loaded Setting File :  C:\Users\User\Documents\EC-Lab\Data\Yatsuzuka\20251112_2-148_alpha_reproducibility\20251112_2-148_002_alpha_reproducibility_2_K1.mps
Saved on :
	File : 20251112_2-148_006_gamma_reproducibility_2_Na1_01_CVA_C02.mpr
	Directory : C:\Users\User\Documents\EC-Lab\Data\Yatsuzuka\20251112_2-148_alpha_reproducibility\
	Host : 192.109.209.127
Device : SP-150e (SN .003883)
Address : 192.109.209.128
EC-Lab for windows v11.52 (software)
Internet server v11.52 (firmware)
Command interpretor v11.50 (firmware)
Electrode material :
Initial state :
Electrolyte :
Comments :
Electrode surface area : 0.001 cm2
Characteristic mass : 0.001 g
Equivalent Weight : 0.000 g/eq.
Density : 0.000 g/cm3
Volume (V) : 0.001 cm3
Cycle Definition : Charge/Discharge alternance
Ei (V)              0.350
vs.                 Ref
ti (h:m:s)          0:00:10.0000
dti (s)             0.0000
dE/dt               10.000
dE/dt unit          mV/s
E1 (V)              0.450
vs.                 Ref
t1 (h:m:s)          0:00:0.0000
dt1 (s)             0.1000
Step percent        50
N                   10
E range min (V)     -1.000
E range max (V)     1.000
I Range             Auto
I Range min         Unset
I Range max         Unset
I Range init        Unset
Bandwidth           5
E2 (V)              0.350
vs.                 Ref
t2 (h:m:s)          0:00:0.0000
dt2 (s)             0.1000
nc cycles           9
nr                  1
Reverse Scan        0
Ef (V)              0.000
vs.                 Eoc
tf (h:m:s)          0:00:0.0000
dtf (s)             0.1000

mode	ox/red	error	control changes	Ns changes	counter inc.	time/s	control/V	Ewe/V	<I>/mA	cycle number	(Q-Qo)/C	I Range	Ns	step time/s	P/W
2	1	0	0	0	0	0.000000000000000E+000	0.349989	0.349419	0.00453687	1	0.0000000E+000	13	0	0.000000000000000E+000	1.58527e-06
2	1	0	1	0	0	1.7755	0.367743	0.367306	0.00273478	1	6.29896e-06	13	0	1.748	1.0045e-06
2	0	0	1	0	0	3.5733	0.385722	0.385286	0.00387449	1	1.26198e-05	13	0	3.5458	1.49279e-06
2	1	0	1	0	0	5.3712	0.403699	0.403304	0.00342015	1	1.8691e-05	13	0	5.3437	1.37936e-06
2	0	0	1	0	0	7.1691	0.421679	0.42124	0.00206214	1	2.45779e-05	13	0	7.1416	8.68654e-07
2	0	0	1	0	0	8.9669	0.439658	0.439193	0.003269	1	3.03328e-05	13	0	8.9394	1.43572e-06
2	1	0	1	0	0	10.6757	0.443253	0.442782	-0.00110511	1	3.22401e-05	13	0	0.6493	-4.89321e-07
2	0	0	1	0	0	12.4735	0.425275	0.424801	-0.00388682	1	2.77656e-05	13	0	2.4471	-1.65112e-06
2	0	0	1	0	0	14.2714	0.407296	0.406824	-0.00181996	1	2.27028e-05	13	0	4.245	-7.40405e-07
2	0	0	1	0	0	16.0693	0.389317	0.388877	-0.0046851	1	1.71421e-05	13	0	6.0429	-1.82193e-06
2	0	0	1	0	0	17.8671	0.371339	0.37086	-0.00254238	1	1.10916e-05	13	0	7.8407	-9.42869e-07
2	0	0	1	0	0	19.665	0.35336	0.352961	-0.0050427	1	4.46578e-06	13	0	9.6386	-1.77988e-06
2	0	0	1	0	1	21.3296	0.363298	0.362896	0.00333596	2	7.43035e-06	13	0	1.2985	1.21061e-06
2	1	0	1	0	1	23.1275	0.381277	0.380861	0.00289868	2	1.35144e-05	13	0	3.0964	1.10399e-06
2	0	0	1	0	1	24.9253	0.399256	0.398815	0.00404083	2	1.94514e-05	13	0	4.8942	1.61154e-06
2	1	0	1	0	1	26.7232	0.417233	0.416816	0.00202906	2	2.51971e-05	13	0	6.6921	8.45746e-07
2	0	0	1	0	1	28.5211	0.435213	0.434742	0.0039308	2	3.07931e-05	13	0	8.49	1.70888e-06
2	0	0	1	0	1	30.2248	0.447748	0.447245	-0.00303834	2	3.48996e-05	13	0	0.1998	-1.35888e-06
2	0	0	1	0	1	32.0227	0.429769	0.429318	-0.00150956	2	3.05788e-05	13	0	1.9977	-6.48081e-07
2	0	0	1	0	1	33.8205	0.411791	0.411293	-0.00389463	2	2.56216e-05	13	0	3.7955	-1.60183e-06
2	0	0	1	0	1	35.6184	0.393812	0.393379	-0.0036153	2	2.0212e-05	13	0	5.5934	-1.42218e-06
2	0	0	1	0	1	37.4163	0.375833	0.37539	-0.00246055	2	1.43062e-05	13	0	7.3913	-9.23667e-07
2	0	0	1	0	1	39.2141	0.357855	0.357377	-0.00532844	2	7.81866e-06	13	0	9.1891	-1.90426e-06
2	1	0	1	0	0	40.8787	0.358804	0.358373	0.0026635	3	7.51471e-06	13	0	0.8765	9.54526e-07
2	0	0	1	0	0	42.6766	0.376782	0.37636	0.00246669	3	1.35687e-05	13	0	2.6744	9.28362e-07
2	1	0	1	0	0	44.4745	0.394761	0.394347	0.00433242	3	1.95322e-05	13	0	4.4723	1.70848e-06
2	0	0	1	0	0	46.2723	0.41274	0.412274	0.00198461	3	2.52919e-05	13	0	6.2701	8.18205e-07
2	1	0	1	0	0	48.0702	0.430717	0.430269	0.00265585	3	3.08822e-05	13	0	8.068	1.14273e-06
2	1	0	1	0	0	49.8681	0.448697	0.4483	0.00392434	3	3.63421e-05	13	0	9.8659	1.75928e-06
2	0	0	1	0	0	51.5718	0.434264	0.433802	-0.00262962	3	3.31542e-05	13	0	1.5482	-1.14073e-06
2	0	0	1	0	0	53.3697	0.416285	0.415817	-0.00416989	3	2.83482e-05	13	0	3.3461	-1.73391e-06
2	0	0	1	0	0	55.1675	0.398307	0.397865	-0.00279052	3	2.30744e-05	13	0	5.1439	-1.11025e-06
2	0	0	1	0	0	56.9654	0.380328	0.379908	-0.00256091	3	1.73129e-05	13	0	6.9418	-9.7291e-07
2	0	0	1	0	0	58.7633	0.362349	0.36185	-0.00487576	3	1.10119e-05	13	0	8.7397	-1.76429e-06
2	1	0	1	0	1	60.4279	0.354309	0.353858	0.00453822	4	7.60033e-06	13	0	0.3996	1.60588e-06
2	1	0	1	0	1	62.2257	0.372288	0.371863	0.00227505	4	1.36254e-05	13	0	2.1974	8.46007e-07
2	1	0	1	0	1	64.0236	0.390266	0.389855	0.00444677	4	1.96008e-05	13	0	3.9953	1.73359e-06
2	1	0	1	0	1	65.8215	0.408245	0.407844	0.00271356	4	2.53739e-05	13	0	5.7932	1.10671e-06
2	1	0	1	0	1	67.6193	0.426224	0.425782	0.00243897	4	3.097e-05	13	0	7.591	1.03847e-06
2	1	0	1	0	1	69.4173	0.444202	0.443786	0.00380521	4	3.64073e-05	13	0	9.389	1.6887e-06
2	1	0	1	0	1	71.1209	0.438759	0.438297	-0.00119028	4	3.56767e-05	13	0	1.0987	-5.21696e-07
2	0	0	1	0	1	72.9188	0.42078	0.420295	-0.00172976	4	3.09927e-05	13	0	2.8966	-7.27009e-07
2	0	0	1	0	1	74.7167	0.402801	0.402346	-0.00319498	4	2.58336e-05	13	0	4.6945	-1.28549e-06
2	0	0	1	0	1	76.5145	0.384823	0.384361	-0.00427429	4	2.02061e-05	13	0	6.4923	-1.64287e-06
2	1	0	1	0	1	78.3124	0.366844	0.366355	-0.00296541	4	1.40685e-05	13	0	8.2902	-1.08639e-06
2	0	0	1	0	0	79.9994	0.350039	0.349572	-0.00414739	5	7.73536e-06	13	0	9.9772	-1.44981e-06
2	1	0	1	0	0	81.7749	0.367793	0.367366	0.00491721	5	1.35238e-05	13	0	1.748	1.80641e-06
2	1	0	1	0	0	83.5727	0.385772	0.385351	0.00363349	5	1.95099e-05	13	0	3.5458	1.40017e-06
2	1	0	1	0	0	85.3706	0.40375	0.403347	0.00219041	5	2.53041e-05	13	0	5.3437	8.83495e-07
2	1	0	1	0	0	87.1685	0.421729	0.421238	0.00339363	5	3.08926e-05	13	0	7.1416	1.42953e-06
2	1	0	1	0	0	88.9663	0.439708	0.439296	0.00399877	5	3.63324e-05	13	0	8.9394	1.75665e-06
2	1	0	1	0	0	90.6701	0.443253	0.442773	-0.0010817	5	3.79972e-05	13	0	0.6767	-4.78945e-07
2	0	0	1	0	0	92.4679	0.425275	0.424784	-0.00200077	5	3.34803e-05	13	0	2.4745	-8.49897e-07
2	0	0	1	0	0	94.2658	0.407296	0.40682	-0.00310693	5	2.8441e-05	13	0	4.2724	-1.26396e-06
2	0	0	1	0	0	96.0637	0.389317	0.388878	-0.00438124	5	2.29431e-05	13	0	6.0703	-1.70377e-06
2	0	0	1	0	0	97.8615	0.371339	0.370893	-0.00435802	5	1.69523e-05	13	0	7.8681	-1.61636e-06
2	0	0	1	0	0	99.6594	0.35336	0.352928	-0.00261404	5	1.03802e-05	13	0	9.666	-9.22567e-07
2	1	0	1	0	1	101.324	0.363298	0.362894	0.00311798	6	1.3324e-05	13	0	1.2985	1.1315e-06
2	1	0	1	0	1	103.122	0.381277	0.380878	0.00487132	6	1.93315e-05	13	0	3.0964	1.85538e-06
2	1	0	1	0	1	104.92	0.399256	0.398804	0.00284107	6	2.51597e-05	13	0	4.8942	1.13303e-06
[...]
2	1	0	1	0	0	129.862	0.448697	0.448267	0.00385941	7	4.1432e-05	13	0	9.8659	1.73004e-06
2	0	0	1	0	0	131.566	0.434264	0.433799	-0.00366014	7	3.82253e-05	13	0	1.5482	-1.58776e-06
2	0	0	1	0	0	133.364	0.416285	0.415772	-0.0019155	7	3.34338e-05	13	0	3.3461	-7.96412e-07
2	0	0	1	0	0	135.162	0.398307	0.39786	-0.00421888	7	2.81915e-05	13	0	5.1439	-1.67853e-06
2	0	0	1	0	0	136.96	0.380328	0.379871	-0.00327127	7	2.24806e-05	13	0	6.9418	-1.24266e-06
2	0	0	1	0	0	138.758	0.362349	0.36185	-0.00354258	7	1.62274e-05	13	0	8.7397	-1.28188e-06
2	0	0	1	0	1	140.422	0.354309	0.353891	0.00357315	8	1.28263e-05	13	0	0.3996	1.26451e-06
2	1	0	1	0	1	142.22	0.372288	0.3719	0.00326827	8	1.87933e-05	13	0	2.1974	1.21547e-06
2	0	0	1	0	1	144.018	0.390266	0.389817	0.00323096	8	2.46893e-05	13	0	3.9953	1.25948e-06
2	1	0	1	0	1	145.816	0.408245	0.407751	0.00177305	8	3.03758e-05	13	0	5.7932	7.22962e-07
2	1	0	1	0	1	147.614	0.426224	0.42579	0.00266806	8	3.58768e-05	13	0	7.591	1.13603e-06
2	1	0	1	0	1	149.412	0.444202	0.443756	0.0035665	8	4.12254e-05	13	0	9.389	1.58266e-06
2	0	0	1	0	1	151.115	0.438759	0.438278	-0.00147449	8	4.04572e-05	13	0	1.1261	-6.46237e-07
2	0	0	1	0	1	152.913	0.42078	0.420279	-0.00268971	8	3.57988e-05	13	0	2.924	-1.13043e-06
2	0	0	1	0	1	154.711	0.402801	0.402355	-0.00440824	8	3.06755e-05	13	0	4.7219	-1.77368e-06
2	0	0	1	0	1	156.509	0.384823	0.384372	-0.00296326	8	2.5101e-05	13	0	6.5197	-1.13899e-06
2	0	0	1	0	1	158.307	0.366844	0.366372	-0.0029773	8	1.90081e-05	13	0	8.3176	-1.0908e-06
2	1	0	1	0	0	159.994	0.350039	0.34961	0.00190214	9	1.27837e-05	13	0	0.000000000000000E+000	6.65007e-07
2	1	0	1	0	0	161.769	0.367793	0.367366	0.00310138	9	1.84448e-05	13	0	1.7755	1.13934e-06
2	1	0	1	0	0	163.567	0.385772	0.385344	0.00467604	9	2.43697e-05	13	0	3.5733	1.80188e-06
2	1	0	1	0	0	165.365	0.40375	0.403295	0.00405391	9	3.01023e-05	13	0	5.3712	1.63492e-06
2	1	0	1	0	0	167.163	0.421729	0.421302	0.00298829	9	3.56272e-05	13	0	7.1691	1.25897e-06
2	1	0	1	0	0	168.961	0.439708	0.439283	0.0027003	9	4.09999e-05	13	0	8.9669	1.1862e-06
2	0	0	1	0	0	170.664	0.443253	0.442782	-0.00299739	9	4.26193e-05	13	0	0.6493	-1.32719e-06
2	0	0	1	0	0	172.462	0.425275	0.424768	-0.00367096	9	3.81272e-05	13	0	2.4471	-1.55931e-06
2	0	0	1	0	0	174.26	0.407296	0.406868	-0.00405065	9	3.31328e-05	13	0	4.245	-1.64808e-06
2	1	0	1	0	0	176.058	0.389317	0.388854	-0.00399287	9	2.7682e-05	13	0	6.0429	-1.55264e-06
2	1	0	1	0	0	177.856	0.371339	0.37088	-0.00254382	9	2.1745e-05	13	0	7.8407	-9.43454e-07
2	0	0	1	0	0	179.654	0.35336	0.352903	-0.00288412	9	1.52223e-05	13	0	9.6386	-1.01781e-06
2	1	0	1	0	1	181.318	0.363298	0.362872	0.00433802	10	1.81295e-05	13	0	1.2985	1.57414e-06
2	1	0	1	0	1	183.116	0.381277	0.38084	0.00436714	10	2.40847e-05	13	0	3.0964	1.66318e-06
2	0	0	1	0	1	184.914	0.399256	0.398798	0.00305744	10	2.98528e-05	13	0	4.8942	1.2193e-06
2	1	0	1	0	1	186.712	0.417233	0.416785	0.00189372	10	3.54104e-05	13	0	6.6921	7.89275e-07
2	1	0	1	0	1	188.51	0.435213	0.434746	0.00277309	10	4.08074e-05	13	0	8.49	1.20559e-06
2	0	0	1	0	1	190.214	0.447748	0.447273	-0.00116364	10	4.47229e-05	13	0	0.1998	-5.20467e-07
2	0	0	1	0	1	192.011	0.429769	0.429296	-0.00300276	10	4.04177e-05	13	0	1.9977	-1.28907e-06
2	0	0	1	0	1	193.809	0.411791	0.411324	-0.00267555	10	3.55293e-05	13	0	3.7955	-1.10052e-06
2	0	0	1	0	1	195.607	0.393812	0.393367	-0.00194859	10	3.02131e-05	13	0	5.5934	-7.66508e-07
2	0	0	1	0	1	197.405	0.375833	0.375349	-0.0035405	10	2.44135e-05	13	0	7.3913	-1.32892e-06
2	1	0	1	0	1	199.203	0.357855	0.357373	-0.00503164	10	1.80506e-05	13	0	9.1891	-1.79817e-06
2	0	0	0	0	1	199.986	0.349989	0.349667	-0.00300049	10	1.51147e-05	13	0	9.9722	-1.04917e-06