Folder: SI_for_publications/ACS_Catal_2026/Figures_Na_K/main_figures/data/EC/20251112_2-148_alpha_reproducibility (part 5)

File: 20251112_2-148_001_alpha_reproducibility_1_Na1_03_CVA_C01.mpt
EC-Lab ASCII FILE
Nb header lines : 66

Cyclic Voltammetry Advanced

Run on channel : 1 (SN 69187)
User :
CE vs. WE compliance from -10 V to 10 V
Electrode connection : standard
Potential control : Ewe
Ewe ctrl range : min = -1.00 V, max = 1.00 V
Safety Limits :
	Do not start on E overload
Acquisition started on : 11/12/2025 13:54:05.582
Loaded Setting File :  C:\Users\User\Documents\EC-Lab\Data\Yatsuzuka\20251030_2-147_gamma_reproducibility\20251030_2-147_001_gamma1_K_1.mps
Saved on :
	File : 20251112_2-148_001_alpha_reproducibility_1_Na1_03_CVA_C01.mpr
	Directory : C:\Users\User\Documents\EC-Lab\Data\Yatsuzuka\20251112_2-148_alpha_reproducibility\
	Host : 192.109.209.127
Device : SP-150e (SN .003883)
Address : 192.109.209.128
EC-LAB for windows v11.52 (software)
Internet server v11.52 (firmware)
Command interpretor v11.50 (firmware)
Electrode material :
Initial state :
Electrolyte :
Comments :
Electrode surface area : 0.001 cm2
Characteristic mass : 0.001 g
Equivalent Weight : 0.000 g/eq.
Density : 0.000 g/cm3
Volume (V) : 0.001 cm3
Cycle Definition : Charge/Discharge alternance
Ei (V)              0.450
vs.                 Ref
ti (h:m:s)          0:00:10.0000
dti (s)             0.0000
dE/dt               5.000
dE/dt unit          mV/s
E1 (V)              0.700
vs.                 Ref
t1 (h:m:s)          0:00:0.0000
dt1 (s)             0.1000
Step percent        50
N                   10
E range min (V)     -1.000
E range max (V)     1.000
I Range             10 mA
I Range min         Unset
I Range max         Unset
I Range init        Unset
Bandwidth           5
E2 (V)              0.450
vs.                 Ref
t2 (h:m:s)          0:00:0.0000
dt2 (s)             0.1000
nc cycles           14
nr                  1
Reverse Scan        0
Ef (V)              0.000
vs.                 Eoc
tf (h:m:s)          0:00:0.0000
dtf (s)             0.1000

mode	ox/red	error	control changes	Ns changes	counter inc.	time/s	control/V	Ewe/V	<I>/mA	cycle number	(Q-Qo)/C	I Range	Ns	step time/s	Pwe/W	Rwe/Ohm
2	1	0	0	0	0	231.846	0.449961	0.449812	0.00871685	1	0.0000000E+000	11	0	0.000000000000000E+000	3.92094e-06	51602.5
2	1	0	1	0	0	245.882	0.520139	0.519898	0.0144477	1	0.000192558	11	0	13.9806	7.51134e-06	35984.8
2	1	0	1	0	0	259.962	0.590541	0.590364	0.020501	1	0.00041259	11	0	28.061	1.2103e-05	28796.9
2	1	0	1	0	0	274.043	0.660943	0.660721	0.131248	1	0.00115346	11	0	42.1415	8.67186e-05	5034.13
2	1	0	0	0	0	287.906	0.669731	0.669533	0.151227	1	0.00529383	11	0	56.0045	0.000101251	4427.34
2	1	0	1	0	0	301.986	0.599329	0.599093	-0.00219722	1	0.00590367	11	0	0.0999	-1.31634e-06	272660
2	1	0	1	0	0	316.067	0.528926	0.528732	-0.00794267	1	0.005796	11	0	14.1804	-4.19955e-06	66568.6
2	0	0	1	0	0	330.147	0.458523	0.458271	-0.0101939	1	0.00563333	11	0	28.2609	-4.67157e-06	44955.3
2	0	0	1	0	1	344.085	0.511201	0.510986	0.0100355	2	0.00576566	11	0	12.1831	5.12801e-06	50917.8
2	1	0	0	0	1	358.166	0.581603	0.581354	0.0184984	2	0.00595704	11	0	26.2636	1.07541e-05	31427.3
2	1	0	1	0	1	372.246	0.652006	0.651778	0.0860864	2	0.00646664	11	0	40.3441	5.61092e-05	7571.2
2	1	0	1	0	1	386.099	0.678719	0.678509	0.215616	2	0.0102522	11	0	54.1971	0.000146297	3146.84
2	1	0	0	0	1	400.18	0.608316	0.608097	0.00310745	2	0.0111352	11	0	68.2776	1.88963e-06	195690
2	0	0	1	0	1	414.26	0.537913	0.537687	-0.0121372	2	0.011043	11	0	12.6824	-6.52599e-06	44300.9
2	0	0	1	0	1	428.34	0.467512	0.467286	-0.0150745	2	0.0108834	11	0	26.7628	-7.0441e-06	30998.4
2	1	0	1	0	0	442.278	0.502213	0.501951	0.0132821	3	0.0109686	11	0	10.3856	6.66696e-06	37791.6
2	1	0	1	0	0	456.359	0.572616	0.572438	0.0168044	3	0.0111527	11	0	24.4661	9.61946e-06	34064.8
2	1	0	0	0	0	470.439	0.643018	0.642849	0.0625379	3	0.0115398	11	0	38.5466	4.02024e-05	10279.3
2	1	0	1	0	0	484.292	0.687706	0.687504	0.298262	3	0.0148907	11	0	52.3996	0.000205056	2305.03
2	1	0	1	0	0	498.373	0.617303	0.617058	0.00549572	3	0.016184	11	0	66.4801	3.39118e-06	112280
2	0	0	1	0	0	512.453	0.546902	0.546695	-0.0119961	3	0.0161143	11	0	10.8848	-6.55821e-06	45572.8
2	0	0	0	0	0	526.534	0.476499	0.476296	-0.013962	3	0.0159587	11	0	24.9653	-6.65002e-06	34113.9
2	1	0	1	0	1	540.472	0.493226	0.492982	0.0147666	4	0.0159983	11	0	8.5881	7.27966e-06	33384.9
2	1	0	1	0	1	554.552	0.563628	0.56342	0.0161918	4	0.0161779	11	0	22.6686	9.12279e-06	34796.6
2	1	0	1	0	1	568.633	0.634031	0.633887	0.0415854	4	0.0164885	11	0	36.7491	2.63605e-05	15243
2	1	0	1	0	1	582.486	0.696693	0.696409	0.416968	4	0.0192117	11	0	50.6021	0.000290381	1670.17
2	1	0	1	0	1	596.566	0.626291	0.626072	0.0159898	4	0.0210762	11	0	64.6826	1.00107e-05	39154.5
2	0	0	1	0	1	610.647	0.555888	0.555677	-0.00988913	4	0.0210383	11	0	9.387	-5.49516e-06	56190.6
2	1	0	1	0	1	624.727	0.485487	0.485269	-0.0099812	4	0.0208871	11	0	23.4674	-4.84356e-06	48618.3
2	1	0	0	0	0	638.665	0.484238	0.484007	0.0129801	5	0.0208828	11	0	6.7906	6.28244e-06	37288.5
2	1	0	1	0	0	652.745	0.554641	0.554425	0.0115564	5	0.0210601	11	0	20.8711	6.40716e-06	47975.7
2	1	0	1	0	0	666.826	0.625043	0.62481	0.0345796	5	0.0213213	11	0	34.9516	2.16056e-05	18068.7
2	1	0	1	0	0	680.906	0.695445	0.69527	0.413861	5	0.023366	11	0	49.032	0.000287745	1679.96
2	1	0	1	0	0	694.759	0.635278	0.635075	0.0213588	5	0.0258539	11	0	62.8851	1.35645e-05	29733.6
2	1	0	1	0	0	708.84	0.564877	0.564662	-0.00704093	5	0.0258627	11	0	7.9889	-3.97575e-06	80197.1
2	0	0	1	0	0	722.92	0.494474	0.494274	-0.0110457	5	0.0257165	11	0	22.0694	-5.45959e-06	44748.2
2	1	0	1	0	1	736.858	0.475251	0.474952	0.0101903	6	0.025669	11	0	4.9931	4.83991e-06	46608.1
2	0	0	0	0	1	750.939	0.545653	0.545423	0.0102191	6	0.0258448	11	0	19.0736	5.57371e-06	53373.1
2	1	0	1	0	1	765.019	0.616056	0.615826	0.0265531	6	0.0260744	11	0	33.1541	1.63521e-05	23192.3
2	1	0	1	0	1	779.1	0.686457	0.686247	0.290512	6	0.0275148	11	0	47.2345	0.000199363	2362.2
2	1	0	1	0	1	792.953	0.644267	0.64409	0.0403465	6	0.0305338	11	0	61.0875	2.59868e-05	15964
2	0	0	0	0	1	807.033	0.573864	0.573656	-0.0100262	6	0.0306077	11	0	5.8918	-5.7516e-06	57215.5
2	0	0	1	0	1	821.114	0.503462	0.503171	-0.013081	6	0.0304674	11	0	19.9723	-6.58196e-06	38465.9
2	1	0	1	0	0	835.052	0.466263	0.466004	0.0138961	7	0.0303774	11	0	3.1956	6.47565e-06	33534.8
2	1	0	1	0	0	849.132	0.536666	0.536419	0.0110403	7	0.0305529	11	0	17.2761	5.92223e-06	48587.4
2	1	0	1	0	0	863.212	0.607068	0.606827	0.022625	7	0.0307619	11	0	31.3565	1.37295e-05	26821.1
2	1	0	0	0	0	877.293	0.67747	0.677227	0.204208	7	0.0317859	11	0	45.437	0.000138295	3316.35
2	1	0	1	0	0	891.146	0.653253	0.653049	0.0572544	7	0.035119	11	0	59.2901	3.739e-05	11406.1
2	1	0	1	0	0	905.226	0.582852	0.582589	-0.00660263	7	0.0352884	11	0	4.0943	-3.84662e-06	88235.9
2	0	0	0	0	0	919.307	0.512449	0.51222	-0.0132642	7	0.0351555	11	0	18.1748	-6.79418e-06	38616.7
2	0	0	1	0	1	933.245	0.457276	0.457022	0.00936259	8	0.0350242	11	0	1.3981	4.27891e-06	48813.6
2	0	0	1	0	1	947.325	0.527678	0.527501	0.00992937	8	0.0351986	11	0	15.4785	5.23776e-06	53125.3
2	1	0	1	0	1	961.406	0.598081	0.597814	0.0203104	8	0.0353937	11	0	29.5591	1.21418e-05	29433.9
2	1	0	1	0	1	975.486	0.668483	0.668223	0.141493	8	0.0361325	11	0	43.6395	9.45491e-05	4722.64
2	1	0	1	0	1	989.339	0.662242	0.662006	0.0893644	8	0.0395931	11	0	57.4925	5.91598e-05	7407.94
2	1	0	1	0	1	1003.42	0.591839	0.591629	-0.00539622	8	0.0398986	11	0	3.0957	-3.19256e-06	109638
[...]
2	1	0	0	0	1	1199.81	0.609814	0.609609	0.00303014	10	0.0489333	11	0	67.978	1.8472e-06	201182
2	0	0	1	0	1	1213.89	0.539411	0.539209	-0.0098476	10	0.0488364	11	0	13.2816	-5.30992e-06	54755.4
2	0	0	1	0	1	1227.97	0.46901	0.468815	-0.014744	10	0.0486789	11	0	27.362	-6.9122e-06	31797.1
2	0	0	1	0	0	1241.91	0.500715	0.500455	0.00998069	11	0.0487544	11	0	10.086	4.99489e-06	50142.3
2	1	0	1	0	0	1255.99	0.571118	0.570849	0.0142191	11	0.0489309	11	0	24.1665	8.11694e-06	40146.7
2	1	0	0	0	0	1270.07	0.64152	0.641302	0.0526788	11	0.0492658	11	0	38.247	3.3783e-05	12173.8
2	1	0	1	0	0	1283.92	0.689204	0.688981	0.286252	11	0.052207	11	0	52.1	0.000197222	2406.9
2	1	0	1	0	0	1298	0.618802	0.618557	0.00636063	11	0.0534248	11	0	66.1805	3.93441e-06	97247.7
2	1	0	0	0	0	1312.08	0.548399	0.54818	-0.00728276	11	0.0533513	11	0	11.3843	-3.99226e-06	75271
2	0	0	1	0	0	1326.16	0.477996	0.477764	-0.0143287	11	0.0531983	11	0	25.4648	-6.84574e-06	33343.1
2	1	0	1	0	1	1340.1	0.491728	0.491504	0.0131016	12	0.0532303	11	0	8.2885	6.43949e-06	37514.8
2	1	0	1	0	1	1354.18	0.56213	0.56188	0.0105373	12	0.0534047	11	0	22.369	5.92068e-06	53323.1
2	1	0	1	0	1	1368.26	0.632533	0.632296	0.0350782	12	0.0536828	11	0	36.4495	2.21798e-05	18025.3
2	1	0	1	0	1	1382.11	0.698192	0.697977	0.411078	12	0.0560674	11	0	50.3025	0.000286923	1697.92
2	1	0	1	0	1	1396.19	0.627789	0.627576	0.0121334	12	0.0578837	11	0	64.383	7.61465e-06	51722.9
2	0	0	1	0	1	1410.27	0.557387	0.557137	-0.00721661	12	0.0578407	11	0	9.6866	-4.02064e-06	77202.1
2	0	0	1	0	1	1424.35	0.486985	0.486771	-0.0139573	12	0.0576914	11	0	23.767	-6.79399e-06	34875.8
2	1	0	0	0	0	1438.29	0.48274	0.482456	0.0120162	13	0.0576795	11	0	6.491	5.79729e-06	40150.5
2	0	0	1	0	0	1452.37	0.553143	0.552889	0.0110456	13	0.0578524	11	0	20.5715	6.10698e-06	50055.3
2	1	0	1	0	0	1466.45	0.623545	0.623337	0.0302144	13	0.0580927	11	0	34.652	1.88338e-05	20630.5
2	1	0	1	0	0	1480.53	0.693948	0.693747	0.364008	13	0.0598667	11	0	48.7325	0.00025253	1905.86
2	1	0	1	0	0	1494.39	0.636777	0.636592	0.022846	13	0.0622544	11	0	62.5855	1.45436e-05	27864.5
2	0	0	1	0	0	1508.47	0.566375	0.566133	-0.00819794	13	0.0622565	11	0	8.2884	-4.64112e-06	69057.9
2	1	0	1	0	0	1522.55	0.495972	0.495703	-0.0087155	13	0.0621125	11	0	22.3689	-4.32029e-06	56876
2	1	0	1	0	1	1536.49	0.473753	0.473532	0.0143458	14	0.0620578	11	0	4.6935	6.79319e-06	33008.4
2	0	0	0	0	1	1550.57	0.544155	0.543933	0.0100876	14	0.0622299	11	0	18.774	5.487e-06	53920.8
2	1	0	1	0	1	1564.65	0.614558	0.614325	0.021168	14	0.0624449	11	0	32.8545	1.3004e-05	29021.5
2	1	0	1	0	1	1578.73	0.68496	0.684771	0.255896	14	0.0637032	11	0	46.9349	0.00017523	2675.98
2	1	0	0	0	1	1592.58	0.645764	0.64559	0.0346338	14	0.0665861	11	0	60.788	2.23592e-05	18640.4
2	1	0	1	0	1	1606.66	0.575361	0.575115	-0.00639464	14	0.0666524	11	0	5.9918	-3.67765e-06	89937
2	0	0	1	0	1	1620.74	0.50496	0.504721	-0.00878417	14	0.066513	11	0	20.0722	-4.43355e-06	57458
2	1	0	1	0	0	1634.68	0.464765	0.464528	0.00940858	15	0.0664165	11	0	2.896	4.37054e-06	49372.8
2	1	0	1	0	0	1648.76	0.535168	0.534916	0.0135052	15	0.0665882	11	0	16.9765	7.22416e-06	39608.1
2	1	0	1	0	0	1662.84	0.60557	0.605367	0.0171196	15	0.0667864	11	0	31.0569	1.03636e-05	35361
2	1	0	1	0	0	1676.92	0.675973	0.675808	0.178955	15	0.0676864	11	0	45.1375	0.000120939	3776.41
2	1	0	1	0	0	1690.77	0.654751	0.65455	0.0564019	15	0.0708472	11	0	58.9905	3.69179e-05	11605.1
2	0	0	1	0	0	1704.85	0.58435	0.584148	-0.00779884	15	0.0710071	11	0	4.8932	-4.55568e-06	74902
2	1	0	0	0	0	1718.93	0.513947	0.513741	-0.00974682	15	0.0708747	11	0	18.9737	-5.00734e-06	52708.5
2	0	0	1	0	0	1731.72	0.450011	0.449945	-0.0269011	15	0.0707251	11	0	31.7581	-1.2104e-05	16725.9

File: 20251112_2-148_001_alpha_reproducibility_1_Na2_01_CVA_C01.mpt
EC-Lab ASCII FILE
Nb header lines : 66

Cyclic Voltammetry Advanced

Run on channel : 1 (SN 69187)
User :
CE vs. WE compliance from -10 V to 10 V
Electrode connection : standard
Potential control : Ewe
Ewe ctrl range : min = -1.00 V, max = 1.00 V
Safety Limits :
	Do not start on E overload
Acquisition started on : 11/12/2025 15:13:50.824
Loaded Setting File :  C:\Users\User\Documents\EC-Lab\Data\Yatsuzuka\20251030_2-147_gamma_reproducibility\20251030_2-147_001_gamma1_K_1.mps
Saved on :
	File : 20251112_2-148_001_alpha_reproducibility_1_Na2_01_CVA_C01.mpr
	Directory : C:\Users\User\Documents\EC-Lab\Data\Yatsuzuka\20251112_2-148_alpha_reproducibility\
	Host : 192.109.209.127
Device : SP-150e (SN .003883)
Address : 192.109.209.128
EC-LAB for windows v11.52 (software)
Internet server v11.52 (firmware)
Command interpretor v11.50 (firmware)
Electrode material :
Initial state :
Electrolyte :
Comments :
Electrode surface area : 0.001 cm2
Characteristic mass : 0.001 g
Equivalent Weight : 0.000 g/eq.
Density : 0.000 g/cm3
Volume (V) : 0.001 cm3
Cycle Definition : Charge/Discharge alternance
Ei (V)              0.350
vs.                 Ref
ti (h:m:s)          0:00:10.0000
dti (s)             0.0000
dE/dt               10.000
dE/dt unit          mV/s
E1 (V)              0.450
vs.                 Ref
t1 (h:m:s)          0:00:0.0000
dt1 (s)             0.1000
Step percent        50
N                   10
E range min (V)     -1.000
E range max (V)     1.000
I Range             Auto
I Range min         Unset
I Range max         Unset
I Range init        Unset
Bandwidth           5
E2 (V)              0.350
vs.                 Ref
t2 (h:m:s)          0:00:0.0000
dt2 (s)             0.1000
nc cycles           9
nr                  1
Reverse Scan        0
Ef (V)              0.000
vs.                 Eoc
tf (h:m:s)          0:00:0.0000
dtf (s)             0.1000

mode	ox/red	error	control changes	Ns changes	counter inc.	time/s	control/V	Ewe/V	<I>/mA	cycle number	(Q-Qo)/C	I Range	Ns	step time/s	Pwe/W	Rwe/Ohm
2	0	0	1	0	0	0.000000000000000E+000	0.34995	0.349686	-0.00118291	1	0.0000000E+000	13	0	0.000000000000000E+000	-4.13647e-07	295615
2	1	0	1	0	0	1.8748	0.368698	0.368452	0.0350937	1	5.66285e-05	13	0	1.8475	1.29304e-05	10499.1
2	1	0	1	0	0	3.7722	0.387673	0.387439	0.0259077	1	0.000113094	13	0	3.7449	1.00376e-05	14954.6
2	1	0	1	0	0	5.6695	0.406646	0.406415	0.0295639	1	0.000167002	13	0	5.6422	1.20152e-05	13747
2	1	0	1	0	0	7.5669	0.42562	0.425416	0.0247962	1	0.000217817	13	0	7.5396	1.05487e-05	17156.5
2	1	0	1	0	0	9.4643	0.444593	0.444369	0.0267753	1	0.000266519	13	0	9.437	1.18981e-05	16596.2
2	0	0	1	0	0	11.3384	0.436654	0.436389	-0.0169114	1	0.000253047	13	0	1.3082	-7.37997e-06	25804.4
2	0	0	1	0	0	13.2358	0.41768	0.417469	-0.029868	1	0.000207019	13	0	3.2056	-1.2469e-05	13977.2
2	0	0	1	0	0	15.1331	0.398707	0.398404	-0.0248893	1	0.000156923	13	0	5.1029	-9.91599e-06	16007.1
2	0	0	1	0	0	17.0305	0.379733	0.379507	-0.0312276	1	0.000102206	13	0	7.0003	-1.18511e-05	12152.9
2	0	0	1	0	0	18.9279	0.36076	0.360492	-0.032925	1	4.272e-05	13	0	8.8977	-1.18692e-05	10948.9
2	1	0	1	0	1	20.7929	0.357913	0.357655	0.0360572	2	2.73147e-05	13	0	0.694	1.2896e-05	9919.08
2	1	0	1	0	1	22.6903	0.376887	0.376685	0.0269568	2	8.38494e-05	13	0	2.5914	1.01542e-05	13973.7
2	1	0	1	0	1	24.5877	0.395861	0.395616	0.0217876	2	0.000138277	13	0	4.4888	8.61954e-06	18157.8
2	1	0	1	0	1	26.485	0.414834	0.414657	0.0220926	2	0.000190215	13	0	6.3861	9.16082e-06	18769.1
2	1	0	1	0	1	28.3824	0.433809	0.433573	0.024324	2	0.000239917	13	0	8.2835	1.05462e-05	17824.9
2	0	0	1	0	1	30.2865	0.44714	0.446916	-0.0156563	2	0.000275625	13	0	0.2447	-6.99707e-06	28545.4
2	0	0	1	0	1	32.1839	0.428166	0.427846	-0.0184567	2	0.000232432	13	0	2.1421	-7.89665e-06	23181
2	0	0	1	0	1	34.0812	0.409192	0.408931	-0.02001	2	0.000184427	13	0	4.0394	-8.1827e-06	20436.4
2	0	0	1	0	1	35.9786	0.390218	0.389922	-0.025533	2	0.000132332	13	0	5.9368	-9.95588e-06	15271.3
2	0	0	1	0	1	37.8759	0.371245	0.370991	-0.0364034	2	7.58794e-05	13	0	7.8341	-1.35053e-05	10191.1
2	0	0	1	0	1	39.7733	0.352271	0.351957	-0.0380164	2	1.3911e-05	13	0	9.7315	-1.33802e-05	9258.04
2	1	0	1	0	0	41.6383	0.366402	0.366165	0.0238789	3	5.15774e-05	13	0	1.6078	8.74361e-06	15334.2
2	1	0	1	0	0	43.5357	0.385375	0.385155	0.0266387	3	0.000107351	13	0	3.5052	1.026e-05	14458.5
2	1	0	1	0	0	45.4331	0.404349	0.404109	0.0332801	3	0.000160673	13	0	5.4026	1.34488e-05	12142.6
2	1	0	1	0	0	47.3304	0.423322	0.423175	0.0295016	3	0.00021153	13	0	7.2999	1.24843e-05	14344.1
2	1	0	1	0	0	49.2278	0.442296	0.442036	0.020157	3	0.000260427	13	0	9.1973	8.91009e-06	21929.7
2	0	0	1	0	0	51.1319	0.438652	0.438394	-0.0219812	3	0.000257445	13	0	1.0286	-9.63646e-06	19944
2	0	0	1	0	0	53.0293	0.419678	0.419453	-0.019085	3	0.000211823	13	0	2.926	-8.00528e-06	21978.1
2	0	0	1	0	0	54.9266	0.400705	0.400417	-0.0307785	3	0.000162164	13	0	4.8233	-1.23242e-05	13009.6
2	0	0	1	0	0	56.824	0.38173	0.381438	-0.0341956	3	0.000108457	13	0	6.7207	-1.30435e-05	11154.6
2	0	0	1	0	0	58.7213	0.362757	0.362453	-0.0274867	3	4.96161e-05	13	0	8.618	-9.96264e-06	13186.5
2	1	0	1	0	1	60.5864	0.355917	0.355702	0.0289573	4	2.06865e-05	13	0	0.4943	1.03002e-05	12283.7
2	1	0	1	0	1	62.4837	0.37489	0.374655	0.0357525	4	7.71027e-05	13	0	2.3916	1.33948e-05	10479.1
2	1	0	1	0	1	64.3811	0.393864	0.393615	0.0241755	4	0.00013176	13	0	4.289	9.51584e-06	16281.6
2	1	0	1	0	1	66.2785	0.412837	0.412662	0.0246931	4	0.000184163	13	0	6.1864	1.01899e-05	16711.7
2	1	0	1	0	1	68.1759	0.431811	0.431599	0.0322977	4	0.000234071	13	0	8.0838	1.39397e-05	13363.1
2	1	0	1	0	1	70.02	0.449737	0.449396	-0.00592193	4	0.000280274	13	0	0.000000000000000E+000	-2.66129e-06	75886.6
2	0	0	1	0	1	71.9773	0.430163	0.429921	-0.0236442	4	0.000237294	13	0	1.9573	-1.01651e-05	18182.9
2	0	0	1	0	1	73.8747	0.41119	0.410958	-0.0205718	4	0.000189811	13	0	3.8547	-8.45416e-06	19976.7
2	0	0	1	0	1	75.7721	0.392216	0.391935	-0.0345231	4	0.000138353	13	0	5.7521	-1.35308e-05	11352.8
2	0	0	1	0	1	77.6694	0.373243	0.372957	-0.027855	4	8.24056e-05	13	0	7.6494	-1.03887e-05	13389.3
2	0	0	1	0	1	79.5668	0.354268	0.354017	-0.0308096	4	2.09276e-05	13	0	9.5468	-1.09071e-05	11490.5
2	1	0	1	0	0	81.4318	0.364405	0.364207	0.0343793	5	4.55814e-05	13	0	1.3431	1.25212e-05	10593.8
2	1	0	1	0	0	83.3291	0.383378	0.383101	0.0227342	5	0.000101759	13	0	3.2404	8.70948e-06	16851.3
2	1	0	1	0	0	85.2265	0.402352	0.402097	0.034045	5	0.000155413	13	0	5.1378	1.36894e-05	11810.7
2	1	0	1	0	0	87.1239	0.421326	0.421059	0.0211924	5	0.000206587	13	0	7.0352	8.92327e-06	19868.4
2	1	0	1	0	0	89.0213	0.440299	0.440074	0.0303017	5	0.000255681	13	0	8.9326	1.3335e-05	14523.1
2	0	0	1	0	0	90.9253	0.440649	0.440417	-0.0283622	5	0.000261038	13	0	0.8288	-1.24912e-05	15528.3
2	0	0	1	0	0	92.8227	0.421675	0.421419	-0.0186176	5	0.000215959	13	0	2.7262	-7.84579e-06	22635.5
2	0	0	1	0	0	94.7201	0.402701	0.402419	-0.0324723	5	0.000166684	13	0	4.6236	-1.30675e-05	12392.7
2	0	0	1	0	0	96.6175	0.383728	0.383446	-0.0238956	5	0.000113467	13	0	6.521	-9.16266e-06	16046.8
2	0	0	1	0	0	98.5149	0.364754	0.364449	-0.0364871	5	5.53335e-05	13	0	8.4184	-1.32977e-05	9988.44
2	1	0	1	0	1	100.38	0.353919	0.35371	0.02528	6	1.54552e-05	13	0	0.2946	8.94178e-06	13991.7
2	1	0	1	0	1	102.277	0.372892	0.372649	0.0303484	6	7.20008e-05	13	0	2.1919	1.13093e-05	12279.1
[...]
2	0	0	1	0	0	130.719	0.442646	0.442392	-0.0252615	7	0.000268946	13	0	0.6442	-1.11755e-05	17512.5
2	0	0	1	0	0	132.616	0.423673	0.423434	-0.0240269	7	0.000224499	13	0	2.5415	-1.01738e-05	17623.4
2	0	0	1	0	0	134.514	0.404698	0.404436	-0.0257045	7	0.000175652	13	0	4.4389	-1.03958e-05	15734.1
2	0	0	1	0	0	136.411	0.385725	0.385422	-0.0323445	7	0.000123005	13	0	6.3362	-1.24663e-05	11916.2
2	0	0	1	0	0	138.308	0.366751	0.36648	-0.0263311	7	6.55382e-05	13	0	8.2336	-9.64981e-06	13918.1
2	1	0	1	0	1	140.143	0.351623	0.351356	0.0249882	8	1.20644e-05	12	0	0.1299	8.77975e-06	14060.9
2	1	0	1	0	1	142.071	0.370895	0.370599	0.023803	8	6.90736e-05	13	0	2.0572	8.82136e-06	15569.4
2	1	0	1	0	1	143.968	0.389869	0.389574	0.0341595	8	0.000124188	13	0	3.9546	1.33076e-05	11404.5
2	1	0	1	0	1	145.865	0.408843	0.408616	0.0210189	8	0.000176942	13	0	5.852	8.58867e-06	19440.3
2	1	0	1	0	1	147.763	0.427816	0.427568	0.032322	8	0.00022721	13	0	7.7493	1.38198e-05	13228.4
2	1	0	1	0	1	149.66	0.446791	0.446585	0.0195729	8	0.000275737	13	0	9.6467	8.74096e-06	22816.6
2	0	0	1	0	1	151.564	0.434158	0.433906	-0.0233028	8	0.000249562	13	0	1.493	-1.01112e-05	18620.3
2	0	0	1	0	1	153.462	0.415185	0.414919	-0.0250295	8	0.000203143	13	0	3.3903	-1.03852e-05	16577.2
2	0	0	1	0	1	155.359	0.39621	0.395917	-0.0219246	8	0.000152583	13	0	5.2877	-8.68035e-06	18058.1
2	0	0	1	0	1	157.256	0.377236	0.376995	-0.033638	8	9.78759e-05	13	0	7.1851	-1.26814e-05	11207.4
2	0	0	1	0	1	159.154	0.358263	0.35794	-0.039391	8	3.81404e-05	13	0	9.0824	-1.40996e-05	9086.83
2	1	0	1	0	0	161.019	0.36041	0.360212	0.0283643	9	3.78587e-05	13	0	1.0086	1.02172e-05	12699.5
2	1	0	1	0	0	162.916	0.379384	0.379159	0.0223649	9	9.41748e-05	13	0	2.906	8.47984e-06	16953.3
2	1	0	1	0	0	164.813	0.398357	0.398081	0.0275955	9	0.000148217	13	0	4.8034	1.09852e-05	14425.6
2	1	0	1	0	0	166.711	0.417331	0.417106	0.0329906	9	0.000199802	13	0	6.7008	1.37606e-05	12643.2
2	1	0	1	0	0	168.608	0.436305	0.436083	0.0284373	9	0.000249176	13	0	8.5982	1.2401e-05	15334.9
2	0	0	1	0	0	170.512	0.444643	0.444384	-0.0275023	9	0.00027472	13	0	0.5093	-1.22216e-05	16158.1
2	0	0	1	0	0	172.41	0.425669	0.425348	-0.0239506	9	0.000230768	13	0	2.4067	-1.01873e-05	17759.4
2	0	0	1	0	0	174.307	0.406696	0.40641	-0.0203005	9	0.00018245	13	0	4.3041	-8.25032e-06	20019.7
2	0	0	1	0	0	176.204	0.387723	0.387404	-0.0271213	9	0.000130139	13	0	6.2014	-1.05069e-05	14284.1
2	0	0	1	0	0	178.102	0.368748	0.368444	-0.0378054	9	7.34421e-05	13	0	8.0988	-1.39292e-05	9745.81
2	0	0	0	0	0	179.974	0.35	0.349877	-0.0470969	9	1.19534e-05	13	0	9.9712	-1.64781e-05	7428.87
2	1	0	1	0	1	181.864	0.368899	0.368644	0.0273412	10	6.4852e-05	13	0	1.8575	1.00791e-05	13483.1
2	1	0	1	0	1	183.761	0.387872	0.38761	0.0351798	10	0.00012015	13	0	3.7548	1.3636e-05	11018
2	1	0	1	0	1	185.659	0.406846	0.406619	0.0242989	10	0.00017305	13	0	5.6522	9.88037e-06	16734.1
2	1	0	1	0	1	187.556	0.425819	0.42556	0.0208008	10	0.000223669	13	0	7.5496	8.85197e-06	20458.8
2	1	0	1	0	1	189.454	0.444793	0.444557	0.0298451	10	0.000272221	13	0	9.447	1.32679e-05	14895.5
2	0	0	1	0	1	191.358	0.436155	0.435904	-0.0253115	10	0.000255698	13	0	1.2932	-1.10334e-05	17221.6
2	0	0	1	0	1	193.255	0.417181	0.416974	-0.0311054	10	0.000209716	13	0	3.1906	-1.29702e-05	13405.2
2	0	0	1	0	1	195.152	0.398208	0.397915	-0.0239498	10	0.000159701	13	0	5.088	-9.53e-06	16614.6
2	0	0	1	0	1	197.05	0.379234	0.378988	-0.0250131	10	0.000105549	13	0	6.9854	-9.47967e-06	15151.6
2	0	0	1	0	1	198.947	0.360261	0.359985	-0.0391812	10	4.65345e-05	13	0	8.8827	-1.41046e-05	9187.71
2	0	0	0	0	1	199.971	0.35	0.349762	-0.023088	10	1.23143e-05	13	0	9.9063	-8.07531e-06	15149.1