Folder: SI_for_publications/ACS_Catal_2026/Figures_Na_K/main_figures/data/EC/20251112_2-148_alpha_reproducibility (part 25)

File: 20251112_2-148_005_gamma_reproducibility_K1_01_CVA_C01.mpt
EC-Lab ASCII FILE
Nb header lines : 66

Cyclic Voltammetry Advanced

Run on channel : 1 (SN 69187)
User :
CE vs. WE compliance from -10 V to 10 V
Electrode connection : standard
Potential control : Ewe
Ewe ctrl range : min = -1.00 V, max = 1.00 V
Safety Limits :
	Do not start on E overload
Acquisition started on : 11/12/2025 19:09:25.688
Loaded Setting File :  C:\Users\User\Documents\EC-Lab\Data\Yatsuzuka\20251030_2-147_gamma_reproducibility\20251030_2-147_001_gamma1_K_1.mps
Saved on :
	File : 20251112_2-148_005_gamma_reproducibility_K1_01_CVA_C01.mpr
	Directory : C:\Users\User\Documents\EC-Lab\Data\Yatsuzuka\20251112_2-148_alpha_reproducibility\
	Host : 192.109.209.127
Device : SP-150e (SN .003883)
Address : 192.109.209.128
EC-Lab for windows v11.52 (software)
Internet server v11.52 (firmware)
Command interpretor v11.50 (firmware)
Electrode material :
Initial state :
Electrolyte :
Comments :
Electrode surface area : 0.001 cm2
Characteristic mass : 0.001 g
Equivalent Weight : 0.000 g/eq.
Density : 0.000 g/cm3
Volume (V) : 0.001 cm3
Cycle Definition : Charge/Discharge alternance
Ei (V)              0.350
vs.                 Ref
ti (h:m:s)          0:00:10.0000
dti (s)             0.0000
dE/dt               10.000
dE/dt unit          mV/s
E1 (V)              0.450
vs.                 Ref
t1 (h:m:s)          0:00:0.0000
dt1 (s)             0.1000
Step percent        50
N                   10
E range min (V)     -1.000
E range max (V)     1.000
I Range             Auto
I Range min         Unset
I Range max         Unset
I Range init        Unset
Bandwidth           5
E2 (V)              0.350
vs.                 Ref
t2 (h:m:s)          0:00:0.0000
dt2 (s)             0.1000
nc cycles           9
nr                  1
Reverse Scan        0
Ef (V)              0.000
vs.                 Eoc
tf (h:m:s)          0:00:0.0000
dtf (s)             0.1000

mode	ox/red	error	control changes	Ns changes	counter inc.	time/s	control/V	Ewe/V	<I>/mA	cycle number	(Q-Qo)/C	I Range	Ns	step time/s	P/W
2	1	0	1	0	0	0.000000000000000E+000	0.34995	0.349724	0.00332545	1	0.0000000E+000	13	0	0.000000000000000E+000	1.16299e-06
2	1	0	1	0	0	1.7749	0.3677	0.367447	0.00277105	1	7.24387e-06	13	0	1.7476	1.01821e-06
2	0	0	1	0	0	3.5725	0.385675	0.385438	0.00506314	1	1.46335e-05	13	0	3.5452	1.95153e-06
2	1	0	1	0	0	5.3699	0.40365	0.403386	0.00283568	1	2.19525e-05	13	0	5.3426	1.14387e-06
2	1	0	1	0	0	7.1675	0.421625	0.421356	0.0050172	1	2.91841e-05	13	0	7.1402	2.11403e-06
2	1	0	1	0	0	8.965	0.439601	0.439417	0.00363083	1	3.62799e-05	13	0	8.9377	1.59545e-06
2	0	0	1	0	0	10.6793	0.443245	0.443021	-0.000786663	1	4.01492e-05	13	0	0.4993	-3.48508e-07
2	0	0	1	0	0	12.4768	0.425271	0.424998	-0.0012005	1	3.83044e-05	13	0	2.2968	-5.10208e-07
2	0	0	1	0	0	14.2743	0.407295	0.407033	-0.00266941	1	3.54512e-05	13	0	4.0943	-1.08654e-06
2	0	0	1	0	0	16.0719	0.38932	0.389075	-0.00157502	1	3.18877e-05	13	0	5.8919	-6.12799e-07
2	0	0	1	0	0	17.8693	0.371345	0.371101	-0.00364646	1	2.77425e-05	13	0	7.6893	-1.35321e-06
2	1	0	1	0	0	19.6669	0.35337	0.353098	-0.00152873	1	2.2998e-05	13	0	9.4869	-5.3979e-07
2	0	0	1	0	1	21.3321	0.363306	0.363129	0.00383681	2	2.61104e-05	13	0	1.3257	1.39326e-06
2	1	0	1	0	1	23.1297	0.381281	0.381031	0.00174778	2	3.15354e-05	13	0	3.1233	6.65959e-07
2	0	0	1	0	1	24.9271	0.399256	0.398998	0.00377015	2	3.67132e-05	13	0	4.9207	1.50428e-06
2	1	0	1	0	1	26.7247	0.417231	0.417001	0.00185736	2	4.17109e-05	13	0	6.7183	7.74519e-07
2	1	0	1	0	1	28.5222	0.435207	0.43495	0.00383627	2	4.66394e-05	13	0	8.5158	1.66859e-06
2	0	0	1	0	1	30.2265	0.447739	0.447521	-0.0013721	2	5.05458e-05	13	0	0.1997	-6.14041e-07
2	0	0	1	0	1	32.0241	0.429764	0.429542	-0.00127047	2	4.82299e-05	13	0	1.9973	-5.45721e-07
2	1	0	1	0	1	33.8215	0.411789	0.411566	-0.00180541	2	4.51613e-05	13	0	3.7947	-7.43045e-07
2	1	0	1	0	1	35.6191	0.393814	0.393522	-0.00172401	2	4.15638e-05	13	0	5.5923	-6.78435e-07
2	1	0	1	0	1	37.4166	0.375838	0.375592	-0.00342938	2	3.74452e-05	13	0	7.3898	-1.28805e-06
2	0	0	1	0	1	39.2141	0.357864	0.357562	-0.00151288	2	3.28059e-05	13	0	9.1873	-5.4095e-07
2	1	0	1	0	0	40.8794	0.358813	0.358554	0.0034215	3	3.31342e-05	13	0	0.8764	1.22679e-06
2	1	0	1	0	0	42.6769	0.376787	0.376564	0.00352858	3	3.82458e-05	13	0	2.6739	1.32874e-06
2	1	0	1	0	0	44.4744	0.394763	0.394496	0.0017339	3	4.30965e-05	13	0	4.4714	6.84016e-07
2	0	0	1	0	0	46.2719	0.412737	0.41255	0.00320951	3	4.77116e-05	13	0	6.2689	1.32408e-06
2	1	0	1	0	0	48.0694	0.430712	0.430429	0.00233506	3	5.21691e-05	13	0	8.0664	1.00508e-06
2	0	0	1	0	0	49.8669	0.448687	0.448464	0.00192925	3	5.66166e-05	13	0	9.8639	8.65201e-07
2	1	0	1	0	0	51.5713	0.434258	0.434009	-0.000544878	3	5.48661e-05	13	0	1.5479	-2.36482e-07
2	0	0	1	0	0	53.3688	0.416282	0.416041	-0.00294936	3	5.18366e-05	13	0	3.3454	-1.22705e-06
2	0	0	1	0	0	55.1663	0.398307	0.398005	-0.00121038	3	4.83146e-05	13	0	5.1429	-4.81739e-07
2	0	0	1	0	0	56.9638	0.380332	0.380035	-0.00381706	3	4.43388e-05	13	0	6.9404	-1.45062e-06
2	0	0	1	0	0	58.7613	0.362357	0.362055	-0.00183681	3	3.98646e-05	13	0	8.7379	-6.65026e-07
2	1	0	1	0	1	60.4266	0.354318	0.354062	0.00421431	4	3.76475e-05	13	0	0.3995	1.49213e-06
2	1	0	1	0	1	62.2241	0.372294	0.37208	0.00146775	4	4.26429e-05	13	0	2.197	5.4612e-07
2	1	0	1	0	1	64.0216	0.390268	0.390038	0.00341941	4	4.73641e-05	13	0	3.9945	1.3337e-06
2	0	0	1	0	1	65.8191	0.408244	0.408051	0.00184976	4	5.1829e-05	13	0	5.792	7.54798e-07
2	1	0	1	0	1	67.6167	0.426219	0.426001	0.00166762	4	5.60787e-05	13	0	7.5896	7.10409e-07
2	0	0	1	0	1	69.4141	0.444194	0.443955	0.00289633	4	6.02565e-05	13	0	9.387	1.28584e-06
2	0	0	1	0	1	71.1185	0.438751	0.438499	-0.00172882	4	6.01054e-05	13	0	1.0985	-7.58087e-07
2	0	0	1	0	1	72.916	0.420776	0.420514	-0.00267368	4	5.7169e-05	13	0	2.896	-1.12432e-06
2	0	0	1	0	1	74.7135	0.402801	0.40248	-0.00139629	4	5.3768e-05	13	0	4.6935	-5.61977e-07
2	0	0	1	0	1	76.511	0.384827	0.384515	-0.00347918	4	4.99383e-05	13	0	6.491	-1.3378e-06
2	1	0	1	0	1	78.3085	0.366851	0.366562	-0.00134679	4	4.56326e-05	13	0	8.2885	-4.93683e-07
2	1	0	1	0	0	79.9962	0.35005	0.349781	-0.000905241	5	4.11261e-05	13	0	9.9762	-3.16636e-07
2	1	0	1	0	0	81.7713	0.3678	0.36756	0.00211493	5	4.59181e-05	13	0	1.7476	7.77364e-07
2	0	0	1	0	0	83.5689	0.385775	0.385563	0.00203864	5	5.06087e-05	13	0	3.5452	7.86023e-07
2	1	0	1	0	0	85.3663	0.40375	0.403485	0.00304692	5	5.49902e-05	13	0	5.3426	1.22939e-06
2	1	0	1	0	0	87.1639	0.421725	0.421516	0.00188827	5	5.91635e-05	13	0	7.1402	7.95937e-07
2	1	0	1	0	0	88.9613	0.4397	0.439446	0.00287042	5	6.31809e-05	13	0	8.9376	1.2614e-06
2	0	0	1	0	0	90.6657	0.443245	0.442956	-0.00239723	5	6.46012e-05	13	0	0.6491	-1.06187e-06
2	0	0	1	0	0	92.4632	0.425271	0.425053	-0.000907944	5	6.17702e-05	13	0	2.4466	-3.85924e-07
2	1	0	1	0	0	94.2607	0.407295	0.407063	-0.00288213	5	5.84859e-05	13	0	4.2441	-1.17321e-06
2	1	0	1	0	0	96.0583	0.38932	0.389056	-0.00123577	5	5.47684e-05	13	0	6.0417	-4.80782e-07
2	1	0	1	0	0	97.8557	0.371345	0.371079	-0.0032087	5	5.06209e-05	13	0	7.8391	-1.19068e-06
2	1	0	1	0	0	99.6533	0.35337	0.35302	-0.00133627	5	4.59585e-05	13	0	9.6367	-4.71731e-07
2	1	0	1	0	1	101.318	0.363306	0.363074	0.00358623	6	4.85765e-05	13	0	1.3257	1.30207e-06
2	1	0	1	0	1	103.116	0.381281	0.381002	0.00207937	6	5.32127e-05	13	0	3.1233	7.92243e-07
2	1	0	1	0	1	104.913	0.399256	0.399007	0.00350173	6	5.75691e-05	13	0	4.9207	1.39721e-06
[...]
2	1	0	1	0	0	129.853	0.448687	0.448525	0.00215948	7	7.14679e-05	13	0	9.8364	9.68581e-07
2	1	0	1	0	0	131.558	0.434258	0.434004	-0.00164013	7	6.94835e-05	13	0	1.5753	-7.11826e-07
2	1	0	1	0	0	133.355	0.416282	0.416015	-0.00080155	7	6.64124e-05	13	0	3.3728	-3.33457e-07
2	1	0	1	0	0	135.153	0.398307	0.398052	-0.00267513	7	6.29425e-05	13	0	5.1703	-1.06484e-06
2	1	0	1	0	0	136.95	0.380332	0.38001	-0.00247169	7	5.9062e-05	13	0	6.9678	-9.39266e-07
2	0	0	1	0	0	138.748	0.362357	0.362073	-0.00136901	7	5.47337e-05	13	0	8.7653	-4.95683e-07
2	1	0	1	0	1	140.413	0.354318	0.354078	0.0041668	8	5.25637e-05	13	0	0.3995	1.47538e-06
2	1	0	1	0	1	142.21	0.372294	0.372067	0.00174879	8	5.72001e-05	13	0	2.197	6.50666e-07
2	1	0	1	0	1	144.008	0.390268	0.39008	0.00303859	8	6.15504e-05	13	0	3.9945	1.18529e-06
2	0	0	1	0	1	145.805	0.408244	0.408046	0.0021274	8	6.56488e-05	13	0	5.792	8.68074e-07
2	1	0	1	0	1	147.603	0.426219	0.426048	0.0014657	8	6.95049e-05	13	0	7.5896	6.24457e-07
2	0	0	1	0	1	149.4	0.444194	0.444011	0.0027173	8	7.32391e-05	13	0	9.387	1.20651e-06
2	0	0	1	0	1	151.105	0.438751	0.438487	-0.00215547	8	7.28597e-05	13	0	1.0985	-9.45147e-07
2	0	0	1	0	1	152.902	0.420776	0.420508	-0.00105249	8	6.98954e-05	13	0	2.896	-4.4258e-07
2	0	0	1	0	1	154.7	0.402801	0.402589	-0.00298804	8	6.65421e-05	13	0	4.6935	-1.20295e-06
2	0	0	1	0	1	156.497	0.384827	0.384524	-0.00239797	8	6.27927e-05	13	0	6.491	-9.2208e-07
2	1	0	1	0	1	158.295	0.366851	0.366603	-0.00120346	8	5.86252e-05	13	0	8.2885	-4.4119e-07
2	0	0	0	0	0	159.983	0.35005	0.3498	-0.00300592	9	5.42672e-05	13	0	9.9762	-1.05147e-06
2	0	0	1	0	0	161.758	0.3678	0.367569	0.00182936	9	5.87919e-05	13	0	1.7476	6.72416e-07
2	1	0	1	0	0	163.555	0.385775	0.385547	0.00195068	9	6.31705e-05	13	0	3.5452	7.5208e-07
2	1	0	1	0	0	165.353	0.40375	0.403548	0.00336646	9	6.72666e-05	13	0	5.3426	1.35853e-06
2	1	0	1	0	0	167.15	0.421725	0.421486	0.00206247	9	7.11323e-05	13	0	7.1402	8.69302e-07
2	1	0	1	0	0	168.948	0.4397	0.439481	0.00164476	9	7.48178e-05	13	0	8.9376	7.22842e-07
2	0	0	1	0	0	170.652	0.443245	0.442961	-0.000784331	9	7.59991e-05	13	0	0.6765	-3.47428e-07
2	1	0	1	0	0	172.45	0.425271	0.42498	-0.00230427	9	7.31511e-05	13	0	2.474	-9.79267e-07
2	1	0	1	0	0	174.247	0.407295	0.407036	-0.00207787	9	6.98942e-05	13	0	4.2715	-8.45769e-07
2	1	0	1	0	0	176.045	0.38932	0.389083	-0.000945429	9	6.62698e-05	13	0	6.0691	-3.67851e-07
2	0	0	1	0	0	177.842	0.371345	0.371037	-0.00275977	9	6.22329e-05	13	0	7.8665	-1.02398e-06
2	1	0	1	0	0	179.64	0.35337	0.353122	-0.00352359	9	5.77026e-05	13	0	9.6641	-1.24426e-06
2	1	0	1	0	1	181.305	0.363306	0.36309	0.00192377	10	6.01689e-05	13	0	1.2982	6.98504e-07
2	1	0	1	0	1	183.102	0.381281	0.380984	0.00358054	10	6.45805e-05	13	0	3.0958	1.36413e-06
2	1	0	1	0	1	184.9	0.399256	0.399003	0.00256675	10	6.87049e-05	13	0	4.8932	1.02414e-06
2	1	0	1	0	1	186.697	0.417231	0.416999	0.00144609	10	7.2572e-05	13	0	6.6908	6.03019e-07
2	1	0	1	0	1	188.495	0.435207	0.434949	0.00256365	10	7.62438e-05	13	0	8.4883	1.11506e-06
2	0	0	1	0	1	190.199	0.447739	0.447518	-0.0018052	10	7.89087e-05	13	0	0.1997	-8.07857e-07
2	0	0	1	0	1	191.997	0.429764	0.429511	-0.00231156	10	7.61813e-05	13	0	1.9973	-9.9284e-07
2	0	0	1	0	1	193.794	0.411789	0.411569	-0.00114697	10	7.30421e-05	13	0	3.7947	-4.72059e-07
2	0	0	1	0	1	195.592	0.393814	0.393507	-0.00199565	10	6.95373e-05	13	0	5.5923	-7.85303e-07
2	1	0	1	0	1	197.389	0.375838	0.375562	-0.00332295	10	6.56349e-05	13	0	7.3898	-1.24797e-06
2	1	0	1	0	1	199.187	0.357864	0.357578	-0.00169855	10	6.12669e-05	13	0	9.1873	-6.07362e-07
2	0	0	0	0	1	199.971	0.35	0.349762	-0.00282221	10	5.92221e-05	13	0	9.9712	-9.87101e-07

File: 20251112_2-148_005_gamma_reproducibility_K1_02_PEIS_C01.mpt
EC-Lab ASCII FILE
Nb header lines : 63

Potentio Electrochemical Impedance Spectroscopy

Run on channel : 1 (SN 69187)
User :
CE vs. WE compliance from -10 V to 10 V
Electrode connection : standard
Potential control : Ewe
Ewe ctrl range : min = -1.00 V, max = 1.00 V
Safety Limits :
	Do not start on E overload
Acquisition started on : 11/12/2025 19:09:25.688
Loaded Setting File :  C:\Users\User\Documents\EC-Lab\Data\Yatsuzuka\20251030_2-147_gamma_reproducibility\20251030_2-147_001_gamma1_K_1.mps
Saved on :
	File : 20251112_2-148_005_gamma_reproducibility_K1_02_PEIS_C01.mpr
	Directory : C:\Users\User\Documents\EC-Lab\Data\Yatsuzuka\20251112_2-148_alpha_reproducibility\
	Host : 192.109.209.127
Device : SP-150e (SN .003883)
Address : 192.109.209.128
EC-Lab for windows v11.52 (software)
Internet server v11.52 (firmware)
Command interpretor v11.50 (firmware)
Electrode material :
Initial state :
Electrolyte :
Comments :
Electrode surface area : 0.001 cm2
Characteristic mass : 0.001 g
Equivalent Weight : 0.000 g/eq.
Density : 0.000 g/cm3
Volume (V) : 0.001 cm3
Cycle Definition : Charge/Discharge alternance
Mode                Single sine
E (V)               0.4500
vs.                 Ref
tE (h:m:s)          0:00:0.0000
record              0
dI                  0.000
unit dI             mA
dt (s)              0.000
fi                  500.000
unit fi             kHz
ff                  1.000
unit ff             Hz
Nd                  6
Points              per decade
spacing             Logarithmic
Va (mV)             10.0
pw                  0.10
Na                  2
corr                0
E range min (V)     -1.000
E range max (V)     1.000
I Range             Auto
Bandwidth           5
nc cycles           0
goto Ns'            0
nr cycles           0
inc. cycle          0

freq/Hz	Re(Z)/Ohm	-Im(Z)/Ohm	|Z|/Ohm	Phase(Z)/deg	time/s	<Ewe>/V	<I>/mA	Cs/uF	Cp/uF	cycle number	I Range	|Ewe|/V	|I|/A	Ns	(Q-Qo)/mA.h	Re(Y)/Ohm-1	Im(Y)/Ohm-1	|Y|/Ohm-1	Phase(Y)/deg	Re(C)/nF	Im(C)/nF	|C|/nF	Phase(C)/deg	Re(M)	Im(M)	|M|	Phase(M)/deg	Re(Permittivity)	Im(Permittivity)	|Permittivity|	Phase(Permittivity)/deg	Re(Resistivity)/Ohm.cm	Im(Resistivity)/Ohm.cm	|Resistivity|/Ohm.cm	Phase(Resistivity)/deg	Re(Conductivity)/mS/cm	Im(Conductivity)/mS/cm	|Conductivity|/mS/cm	Phase(Conductivity)/deg	Tan(Delta)	Loss Angle(Delta)/deg	dq/mA.h
500019	16.4449	-2.005	16.5667	6.95133	202.074	0.450117	0.00935955	-0.158752	-0.00232529	1	10	0.005471	0.000330241	0	1.72519e-05	0.0599184	-0.0073054	0.0603621	-6.95133	-2.32529	19.0719	19.2131	-96.9513	0.0000000E+000	0.0000000E+000	0.0000000E+000	96.9513	0.0000000E+000	0.0000000E+000	0.0000000E+000	-96.9513	0.0000000E+000	0.0000000E+000	0.0000000E+000	6.95133	0.0000000E+000	0.0000000E+000	0.0000000E+000	-6.95133	8.20194	83.0487	1.72519e-05
231063	9.75463	-0.821299	9.78914	4.81271	202.918	0.449812	0.0104516	-0.838666	-0.0059034	1	10	0.0104656	0.0010691	0	1.74931e-05	0.101794	-0.00857062	0.102154	-4.81271	-5.9034	70.1152	70.3633	-94.8127	0.0000000E+000	0.0000000E+000	0.0000000E+000	94.8127	0.0000000E+000	0.0000000E+000	0.0000000E+000	-94.8127	0.0000000E+000	0.0000000E+000	0.0000000E+000	4.81271	0.0000000E+000	0.0000000E+000	0.0000000E+000	-4.81271	11.8771	85.1873	-1.2872e-07
106786	8.81649	-0.186401	8.81846	1.21119	203.899	0.449759	0.01121	-7.9957	-0.00357246	1	10	0.010821	0.00122709	0	2.01194e-05	0.113373	-0.00239697	0.113398	-1.21119	-3.57245	168.972	169.01	-91.2112	0.0000000E+000	0.0000000E+000	0.0000000E+000	91.2112	0.0000000E+000	0.0000000E+000	0.0000000E+000	-91.2112	0.0000000E+000	0.0000000E+000	0.0000000E+000	1.21119	0.0000000E+000	0.0000000E+000	0.0000000E+000	-1.21119	47.2985	88.7888	1.90142e-06
49352.4	8.71927	-0.00514616	8.71927	0.0338163	204.744	0.449758	0.0109808	-626.656	-0.000218291	1	10	0.0105761	0.00121295	0	2.41641e-05	0.114689	-6.76898e-05	0.114689	-0.0338163	-0.218273	369.856	369.856	-90.0338	0.0000000E+000	0.0000000E+000	0.0000000E+000	90.0338	0.0000000E+000	0.0000000E+000	0.0000000E+000	-90.0338	0.0000000E+000	0.0000000E+000	0.0000000E+000	0.0338163	0.0000000E+000	0.0000000E+000	0.0000000E+000	-0.0338163	1694.33	89.9662	1.72243e-06
22806.6	8.71266	0.0837665	8.71306	-0.550844	205.588	0.449747	0.0108392	83.3086	0.00769997	1	10	0.0104661	0.00120119	0	2.31682e-05	0.114765	0.00110339	0.11477	0.550844	7.69994	800.884	800.921	-89.4492	0.0000000E+000	0.0000000E+000	0.0000000E+000	89.4492	0.0000000E+000	0.0000000E+000	0.0000000E+000	-89.4492	0.0000000E+000	0.0000000E+000	0.0000000E+000	-0.550844	0.0000000E+000	0.0000000E+000	0.0000000E+000	0.550844	104.011	89.4492	-1.13943e-07
10540.4	8.73344	0.177166	8.73524	-1.16214	206.432	0.449756	0.0109435	85.2281	0.0350586	1	10	0.0102336	0.00117154	0	2.41277e-05	0.114455	0.00232183	0.114479	1.16214	35.0586	1728.22	1728.58	-88.8379	0.0000000E+000	0.0000000E+000	0.0000000E+000	88.8379	0.0000000E+000	0.0000000E+000	0.0000000E+000	-88.8379	0.0000000E+000	0.0000000E+000	0.0000000E+000	-1.16214	0.0000000E+000	0.0000000E+000	0.0000000E+000	1.16214	49.2952	88.8379	8.1566e-07
4871.56	8.77509	0.361372	8.78253	-2.3582	207.424	0.449763	0.0114615	90.406	0.153062	1	10	0.0108586	0.00123639	0	2.51426e-05	0.113766	0.00468507	0.113862	2.3582	153.062	3716.76	3719.91	-87.6418	0.0000000E+000	0.0000000E+000	0.0000000E+000	87.6418	0.0000000E+000	0.0000000E+000	0.0000000E+000	-87.6418	0.0000000E+000	0.0000000E+000	0.0000000E+000	-2.3582	0.0000000E+000	0.0000000E+000	0.0000000E+000	2.3582	24.2827	87.6418	1.53296e-06
2250.72	8.84488	0.701712	8.87267	-4.53608	208.575	0.449757	0.0118585	100.772	0.630302	1	10	0.0103225	0.0011634	0	2.77718e-05	0.112353	0.00891354	0.112706	4.53608	630.302	7944.78	7969.74	-85.4639	0.0000000E+000	0.0000000E+000	0.0000000E+000	85.4639	0.0000000E+000	0.0000000E+000	0.0000000E+000	-85.4639	0.0000000E+000	0.0000000E+000	0.0000000E+000	-4.53608	0.0000000E+000	0.0000000E+000	0.0000000E+000	4.53608	12.6047	85.4639	5.7397e-07
1040.33	8.9595	1.37411	9.06426	-8.71948	209.505	0.449762	0.0118603	111.333	2.55862	1	10	0.0104374	0.00115149	0	3.09445e-05	0.109048	0.0167247	0.110323	8.71948	2558.62	16682.7	16877.8	-81.2805	0.0000000E+000	0.0000000E+000	0.0000000E+000	81.2805	0.0000000E+000	0.0000000E+000	0.0000000E+000	-81.2805	0.0000000E+000	0.0000000E+000	0.0000000E+000	-8.71948	0.0000000E+000	0.0000000E+000	0.0000000E+000	8.71948	6.5202	81.2805	2.50086e-06
480.769	9.15265	2.71109	9.54573	-16.4998	210.435	0.44976	0.0107795	122.107	9.8494	1	10	0.0104557	0.00109533	0	3.26983e-05	0.100445	0.0297527	0.104759	16.4998	9849.4	33251.5	34679.6	-73.5002	0.0000000E+000	0.0000000E+000	0.0000000E+000	73.5002	0.0000000E+000	0.0000000E+000	0.0000000E+000	-73.5002	0.0000000E+000	0.0000000E+000	0.0000000E+000	-16.4998	0.0000000E+000	0.0000000E+000	0.0000000E+000	16.4998	3.376	73.5002	7.88867e-07
222.061	9.40548	5.44531	10.868	-30.0687	211.359	0.449764	0.0112994	131.621	33.0421	1	10	0.0104453	0.000961099	0	3.53942e-05	0.0796302	0.046102	0.0920129	30.0687	33042.1	57072.4	65947.3	-59.9313	0.0000000E+000	0.0000000E+000	0.0000000E+000	59.9313	0.0000000E+000	0.0000000E+000	0.0000000E+000	-59.9313	0.0000000E+000	0.0000000E+000	0.0000000E+000	-30.0687	0.0000000E+000	0.0000000E+000	0.0000000E+000	30.0687	1.72726	59.9313	1.77105e-06
102.667	9.77807	11.2504	14.9058	-49.0051	212.296	0.449758	0.0114	137.79	78.4958	1	10	0.0104414	0.000700492	0	3.85589e-05	0.0440092	0.0506359	0.067088	49.0051	78495.8	68223	104000	-40.9949	0.0000000E+000	0.0000000E+000	0.0000000E+000	40.9949	0.0000000E+000	0.0000000E+000	0.0000000E+000	-40.9949	0.0000000E+000	0.0000000E+000	0.0000000E+000	-49.0051	0.0000000E+000	0.0000000E+000	0.0000000E+000	49.0051	0.86913	40.9949	1.78959e-06
47.4443	10.4054	23.6098	25.8011	-66.2157	213.451	0.449756	0.00052421	142.083	118.974	1	11	0.0104583	0.000405345	0	4.08646e-05	0.0156309	0.0354664	0.0387581	66.2157	118974	52434.9	130016	-23.7843	0.0000000E+000	0.0000000E+000	0.0000000E+000	23.7843	0.0000000E+000	0.0000000E+000	0.0000000E+000	-23.7843	0.0000000E+000	0.0000000E+000	0.0000000E+000	-66.2157	0.0000000E+000	0.0000000E+000	0.0000000E+000	66.2157	0.440725	23.7843	5.98576e-07
21.9144	11.5584	49.8047	51.1283	-76.9344	214.319	0.449752	0.000248939	145.821	138.368	1	11	0.0104279	0.000203955	0	4.11882e-05	0.00442153	0.0190523	0.0195586	76.9344	138368	32111.7	142046	-13.0656	0.0000000E+000	0.0000000E+000	0.0000000E+000	13.0656	0.0000000E+000	0.0000000E+000	0.0000000E+000	-13.0656	0.0000000E+000	0.0000000E+000	0.0000000E+000	-76.9344	0.0000000E+000	0.0000000E+000	0.0000000E+000	76.9344	0.232073	13.0656	1.38013e-07
10.1329	13.8414	105.525	106.429	-82.5273	215.246	0.449755	0.000360943	148.843	146.326	1	11	0.0104275	9.79762e-05	0	4.04594e-05	0.00122197	0.00931614	0.00939594	82.5273	146326	19193.1	147579	-7.47266	0.0000000E+000	0.0000000E+000	0.0000000E+000	7.47266	0.0000000E+000	0.0000000E+000	0.0000000E+000	-7.47266	0.0000000E+000	0.0000000E+000	0.0000000E+000	-82.5273	0.0000000E+000	0.0000000E+000	0.0000000E+000	82.5273	0.131167	7.47266	-5.61916e-07
4.68375	17.5109	223.712	224.396	-85.5243	216.296	0.449772	0.000146252	151.893	150.968	1	12	0.0104268	4.6466e-05	0	4.043e-05	0.000347758	0.00444282	0.0044564	85.5243	150968	11816.9	151430	-4.47565	0.0000000E+000	0.0000000E+000	0.0000000E+000	4.47565	0.0000000E+000	0.0000000E+000	0.0000000E+000	-4.47565	0.0000000E+000	0.0000000E+000	0.0000000E+000	-85.5243	0.0000000E+000	0.0000000E+000	0.0000000E+000	85.5243	0.0782742	4.47565	3.67495e-08
2.16533	27.5422	474.991	475.789	-86.6814	218.009	0.449771	0.000225475	154.743	154.224	1	12	0.0104204	2.19014e-05	0	4.10253e-05	0.000121666	0.00209825	0.00210177	86.6814	154224	8942.65	154484	-3.31856	0.0000000E+000	0.0000000E+000	0.0000000E+000	3.31856	0.0000000E+000	0.0000000E+000	0.0000000E+000	-3.31856	0.0000000E+000	0.0000000E+000	0.0000000E+000	-86.6814	0.0000000E+000	0.0000000E+000	0.0000000E+000	86.6814	0.0579846	3.31856	8.36461e-09
1.00006	50.2404	1012.81	1014.05	-87.1602	222.349	0.449769	0.000169065	157.132	156.747	1	13	0.0104249	1.02804e-05	0	4.06506e-05	4.88576e-05	0.000984931	0.000986142	87.1602	156747	7775.44	156939	-2.83984	0.0000000E+000	0.0000000E+000	0.0000000E+000	2.83984	0.0000000E+000	0.0000000E+000	0.0000000E+000	-2.83984	0.0000000E+000	0.0000000E+000	0.0000000E+000	-87.1602	0.0000000E+000	0.0000000E+000	0.0000000E+000	87.1602	0.0496051	2.83984	-4.87724e-08