Folder: SI_for_publications/ACS_Catal_2026/Figures_Na_K/main_figures/data/EC/20251112_2-148_alpha_reproducibility (part 11)

File: 20251112_2-148_002_alpha_reproducibility_2_Na1_03_CVA_C02.mpt
EC-Lab ASCII FILE
Nb header lines : 66

Cyclic Voltammetry Advanced

Run on channel : 2 (SN 69290)
User :
CE vs. WE compliance from -10 V to 10 V
Electrode connection : standard
Potential control : Ewe
Ewe ctrl range : min = -1.00 V, max = 1.00 V
Safety Limits :
	Do not start on E overload
Acquisition started on : 11/12/2025 13:57:42.969
Loaded Setting File :  C:\Users\User\Documents\EC-Lab\Data\Yatsuzuka\20251112_2-148_alpha_reproducibility\20251112_2-148_002_alpha_reproducibility_2_K1.mps
Saved on :
	File : 20251112_2-148_002_alpha_reproducibility_2_Na1_03_CVA_C02.mpr
	Directory : C:\Users\User\Documents\EC-Lab\Data\Yatsuzuka\20251112_2-148_alpha_reproducibility\
	Host : 192.109.209.127
Device : SP-150e (SN .003883)
Address : 192.109.209.128
EC-LAB for windows v11.52 (software)
Internet server v11.52 (firmware)
Command interpretor v11.50 (firmware)
Electrode material :
Initial state :
Electrolyte :
Comments :
Electrode surface area : 0.001 cm2
Characteristic mass : 0.001 g
Equivalent Weight : 0.000 g/eq.
Density : 0.000 g/cm3
Volume (V) : 0.001 cm3
Cycle Definition : Charge/Discharge alternance
Ei (V)              0.450
vs.                 Ref
ti (h:m:s)          0:00:10.0000
dti (s)             0.0000
dE/dt               5.000
dE/dt unit          mV/s
E1 (V)              0.700
vs.                 Ref
t1 (h:m:s)          0:00:0.0000
dt1 (s)             0.1000
Step percent        50
N                   10
E range min (V)     -1.000
E range max (V)     1.000
I Range             10 mA
I Range min         Unset
I Range max         Unset
I Range init        Unset
Bandwidth           5
E2 (V)              0.450
vs.                 Ref
t2 (h:m:s)          0:00:0.0000
dt2 (s)             0.1000
nc cycles           14
nr                  1
Reverse Scan        0
Ef (V)              0.000
vs.                 Eoc
tf (h:m:s)          0:00:0.0000
dtf (s)             0.1000

mode	ox/red	error	control changes	Ns changes	counter inc.	time/s	control/V	Ewe/V	<I>/mA	cycle number	(Q-Qo)/C	I Range	Ns	step time/s	Pwe/W	Rwe/Ohm
2	0	0	1	0	0	231.861	0.450021	0.449535	-0.00937325	1	0.0000000E+000	11	0	0.000000000000000E+000	-4.2136e-06	47959.3
2	1	0	1	0	0	245.9	0.520213	0.519748	0.0151861	1	0.000209034	11	0	13.9835	7.89294e-06	34225.3
2	1	0	1	0	0	259.983	0.590628	0.590176	0.0218081	1	0.000447855	11	0	28.0667	1.28706e-05	27062.2
2	1	0	1	0	0	274.066	0.661046	0.660636	0.150536	1	0.00127869	11	0	42.1501	9.94498e-05	4388.55
2	1	0	1	0	0	287.9	0.669785	0.669305	0.173313	1	0.00592746	11	0	55.984	0.000115999	3861.83
2	1	0	1	0	0	301.984	0.599368	0.598921	2.08192e-05	1	0.00662333	11	0	0.2996	1.24691e-08	2.87677e+07
2	0	0	0	0	0	316.067	0.528952	0.528487	-0.0101212	1	0.0065231	11	0	13.484	-5.34894e-06	52215.7
2	0	0	1	0	0	330.15	0.458535	0.458069	-0.0127668	1	0.00636145	11	0	27.5673	-5.84808e-06	35879.7
2	1	0	1	0	1	344.003	0.510773	0.510293	0.0142571	2	0.00650482	11	0	12.1407	7.27529e-06	35792.3
2	1	0	0	0	1	358.086	0.58119	0.580749	0.017526	2	0.00671122	11	0	26.224	1.01782e-05	33136.4
2	1	0	1	0	1	372.17	0.651606	0.651179	0.096587	2	0.00727121	11	0	40.3073	6.28954e-05	6741.88
2	1	0	0	0	1	385.994	0.679274	0.678827	0.244022	2	0.0115096	11	0	54.1312	0.000165648	2781.83
2	1	0	1	0	1	400.077	0.608857	0.608373	0.00423212	2	0.0125344	11	0	68.2146	2.5747e-06	143751
2	1	0	1	0	1	414.16	0.53844	0.537976	-0.00946363	2	0.0124535	11	0	12.0857	-5.09121e-06	56846.7
2	0	0	0	0	1	428.244	0.468024	0.467548	-0.0116384	2	0.0122962	11	0	26.169	-5.44153e-06	40172.7
2	1	0	1	0	0	442.096	0.501284	0.500834	0.0137844	3	0.0123881	11	0	10.1879	6.90371e-06	36333.3
2	1	0	1	0	0	456.18	0.571702	0.571221	0.015768	3	0.0125873	11	0	24.2713	9.007e-06	36226.6
2	1	0	1	0	0	470.263	0.642117	0.641627	0.0661092	3	0.0130069	11	0	38.3545	4.24175e-05	9705.57
2	1	0	1	0	0	484.087	0.688762	0.688286	0.349457	3	0.0167139	11	0	52.1785	0.000240526	1969.59
2	1	0	0	0	0	498.17	0.618346	0.617951	0.00927531	3	0.0182286	11	0	66.2618	5.73169e-06	66623.2
2	1	0	1	0	0	512.253	0.547929	0.547439	-0.0088148	3	0.0181751	11	0	10.2878	-4.82557e-06	62104.5
2	0	0	1	0	0	526.337	0.477513	0.477036	-0.011883	3	0.0180228	11	0	24.3711	-5.66863e-06	40144.3
2	1	0	0	0	1	540.19	0.491796	0.491332	0.0134554	4	0.0180655	11	0	8.3452	6.61109e-06	36515.5
2	1	0	1	0	1	554.273	0.562212	0.561709	0.0146865	4	0.0182603	11	0	22.4285	8.24953e-06	38246.6
2	1	0	1	0	1	568.356	0.632629	0.63217	0.0470019	4	0.0185936	11	0	36.5118	2.97132e-05	13449.9
2	1	0	1	0	1	582.18	0.698252	0.697805	0.496163	4	0.0215183	11	0	50.3357	0.000346225	1406.4
2	1	0	1	0	1	596.263	0.627834	0.627385	0.0179158	4	0.0237448	11	0	64.4191	1.12401e-05	35018.6
2	0	0	0	0	1	610.347	0.557418	0.55696	-0.00829003	4	0.0237307	11	0	8.49	-4.61722e-06	67184.4
2	0	0	1	0	1	624.43	0.487001	0.486572	-0.0112341	4	0.0235841	11	0	22.5733	-5.4662e-06	43312
2	1	0	1	0	0	638.283	0.482307	0.481836	0.0135404	5	0.0235791	11	0	6.4474	6.52426e-06	35585
2	1	0	1	0	0	652.366	0.552723	0.552255	0.0141609	5	0.0237723	11	0	20.5307	7.82042e-06	38998.7
2	1	0	0	0	0	666.449	0.62314	0.622648	0.0346136	5	0.0240519	11	0	34.614	2.15521e-05	17988.6
2	1	0	1	0	0	680.533	0.693557	0.69308	0.431748	5	0.0262001	11	0	48.6974	0.000299236	1605.29
2	1	0	1	0	0	694.357	0.637323	0.636881	0.0309645	5	0.0291369	11	0	62.5213	1.97207e-05	20568.1
2	1	0	1	0	0	708.44	0.566907	0.56648	-0.00749812	5	0.0291803	11	0	6.6921	-4.24753e-06	75549.6
2	0	0	1	0	0	722.523	0.49649	0.495996	-0.0110981	5	0.0290398	11	0	20.7754	-5.5046e-06	44692.1
2	1	0	1	0	1	736.376	0.472818	0.472348	0.0130937	6	0.0289872	11	0	4.5497	6.18479e-06	36074.4
2	1	0	1	0	1	750.459	0.543235	0.542731	0.0136797	6	0.0291784	11	0	18.633	7.42441e-06	39674.1
2	1	0	1	0	1	764.543	0.613651	0.61323	0.0271784	6	0.0294232	11	0	32.7163	1.66666e-05	22563.2
2	1	0	0	0	1	778.626	0.684068	0.68367	0.299985	6	0.0309073	11	0	46.7996	0.000205091	2279.01
2	1	0	1	0	1	792.45	0.646813	0.646391	0.0498363	6	0.0344119	11	0	60.6235	3.22138e-05	12970.3
2	1	0	1	0	1	806.533	0.576395	0.575951	-0.00662898	6	0.0345399	11	0	5.094	-3.81797e-06	86883.8
2	0	0	1	0	1	820.617	0.505979	0.505516	-0.0109529	6	0.0344069	11	0	19.1773	-5.53689e-06	46153.5
2	1	0	1	0	0	834.469	0.463329	0.462845	0.0136374	7	0.0343081	11	0	2.5969	6.31198e-06	33939.4
2	1	0	0	0	0	848.553	0.533746	0.533264	0.014074	7	0.0344986	11	0	16.6802	7.50515e-06	37890
2	1	0	1	0	0	862.636	0.604162	0.603734	0.0217668	7	0.0347214	11	0	30.7635	1.31413e-05	27736.5
2	1	0	1	0	0	876.719	0.67458	0.674093	0.204837	7	0.0357568	11	0	44.8469	0.000138079	3290.87
2	1	0	1	0	0	890.543	0.656301	0.655881	0.0770319	7	0.0395522	11	0	58.6708	5.05238e-05	8514.41
2	1	0	1	0	0	904.626	0.585884	0.585426	-0.00534168	7	0.0398031	11	0	3.0963	-3.12716e-06	109596
2	1	0	0	0	0	918.71	0.515468	0.515002	-0.0103587	7	0.0396791	11	0	17.1796	-5.33474e-06	49717
2	1	0	1	0	1	932.563	0.453841	0.4534	0.0121371	8	0.0395354	11	0	0.7542	5.50296e-06	37356.4
2	1	0	1	0	1	946.646	0.524258	0.523843	0.0135022	8	0.0397244	11	0	14.8375	7.07301e-06	38797
2	1	0	0	0	1	960.729	0.594674	0.594241	0.0184652	8	0.0399325	11	0	28.9208	1.09728e-05	32181.6
2	1	0	1	0	1	974.812	0.665091	0.664637	0.139129	8	0.0406695	11	0	43.0041	9.24704e-05	4777.12
2	1	0	1	0	1	988.636	0.665789	0.665276	0.117393	8	0.0445548	11	0	56.8281	7.80988e-05	5667.08
2	1	0	1	0	1	1002.72	0.595373	0.594934	-0.00280254	8	0.04498	11	0	1.4983	-1.66732e-06	212284
[...]
2	0	0	0	0	1	1212.99	0.543934	0.543473	-0.00919407	10	0.0550599	11	0	11.9858	-4.99673e-06	59111.2
2	0	0	1	0	1	1227.07	0.473517	0.473042	-0.0116674	10	0.0549087	11	0	26.0691	-5.51919e-06	40543.7
2	1	0	1	0	0	1240.93	0.495791	0.495314	0.013319	11	0.054972	11	0	9.0892	6.59709e-06	37188.5
2	1	0	1	0	0	1255.01	0.566207	0.565742	0.0137719	11	0.0551637	11	0	23.1725	7.79132e-06	41079.5
2	1	0	1	0	0	1269.09	0.636625	0.636158	0.0477915	11	0.0554968	11	0	37.2559	3.04029e-05	13311.1
2	1	0	0	0	0	1282.92	0.694256	0.693776	0.384815	11	0.0584363	11	0	51.0798	0.000266976	1802.88
2	1	0	1	0	0	1297	0.623839	0.623397	0.0104137	11	0.0601055	11	0	65.1631	6.49184e-06	59863.4
2	0	0	1	0	0	1311.08	0.553423	0.552949	-0.00872042	11	0.0600598	11	0	10.088	-4.82194e-06	63408.6
2	1	0	1	0	0	1325.17	0.483006	0.482573	-0.0111099	11	0.0599126	11	0	24.1713	-5.36132e-06	43436.4
2	0	0	1	0	1	1339.02	0.486303	0.485821	0.013118	12	0.0599273	11	0	7.1915	6.37301e-06	37034.6
2	1	0	1	0	1	1353.1	0.556719	0.556244	0.0132979	12	0.0601166	11	0	21.2748	7.39688e-06	41829.5
2	1	0	1	0	1	1367.19	0.627135	0.626675	0.0354724	12	0.0603959	11	0	35.3581	2.22297e-05	17666.5
2	1	0	0	0	1	1381.27	0.697552	0.697088	0.456568	12	0.0626643	11	0	49.4414	0.000318268	1526.8
2	1	0	0	0	1	1395.09	0.633328	0.632871	0.0208802	12	0.0650227	11	0	63.2654	1.32145e-05	30309.6
2	1	0	1	0	1	1409.18	0.562911	0.562463	-0.00806764	12	0.065022	11	0	8.1903	-4.53775e-06	69718.3
2	1	0	1	0	1	1423.26	0.492495	0.491997	-0.0108348	12	0.0648803	11	0	22.2736	-5.33067e-06	45409.1
2	1	0	1	0	0	1437.11	0.476813	0.476343	0.0133711	13	0.0648481	11	0	5.2937	6.36924e-06	35624.8
2	1	0	0	0	0	1451.2	0.54723	0.546783	0.0134652	13	0.0650364	11	0	19.377	7.36256e-06	40607
2	1	0	1	0	0	1465.28	0.617647	0.617176	0.0273044	13	0.0652801	11	0	33.4604	1.68517e-05	22603.5
2	1	0	1	0	0	1479.36	0.688064	0.687582	0.322082	13	0.0668586	11	0	47.5437	0.000221458	2134.8
2	1	0	1	0	0	1493.19	0.642817	0.642396	0.035495	13	0.0698796	11	0	61.3676	2.28019e-05	18098.2
2	0	0	1	0	0	1507.27	0.5724	0.571913	-0.00774854	13	0.0699439	11	0	6.1926	-4.43149e-06	73809.2
2	1	0	0	0	0	1521.35	0.501984	0.50154	-0.0103987	13	0.0698082	11	0	20.2759	-5.21537e-06	48231
2	1	0	1	0	1	1535.21	0.467325	0.46689	0.0129015	14	0.0697301	11	0	3.396	6.02358e-06	36188.8
2	1	0	1	0	1	1549.29	0.537742	0.537267	0.0132096	14	0.0699179	11	0	17.4793	7.09709e-06	40672.3
2	1	0	0	0	1	1563.37	0.608158	0.607713	0.0220318	14	0.0701405	11	0	31.5626	1.3389e-05	27583.4
2	1	0	1	0	1	1577.46	0.678574	0.678165	0.221494	14	0.0712414	11	0	45.6459	0.00015021	3061.78
2	1	0	1	0	1	1591.28	0.652305	0.651883	0.0568079	14	0.0746443	11	0	59.4699	3.70321e-05	11475.2
2	0	0	1	0	1	1605.36	0.581889	0.581453	-0.00663248	14	0.0748036	11	0	4.3948	-3.85648e-06	87667.5
2	0	0	1	0	1	1619.45	0.511472	0.511007	-0.0109495	14	0.0746752	11	0	18.4781	-5.59527e-06	46669.4
2	1	0	0	0	0	1633.3	0.457836	0.457378	0.0132833	15	0.0745523	11	0	1.4982	6.0755e-06	34432.5
2	1	0	1	0	0	1647.38	0.528252	0.5278	0.0132446	15	0.0747404	11	0	15.5815	6.99051e-06	39850.1
2	1	0	1	0	0	1661.47	0.59867	0.598183	0.0187671	15	0.0749484	11	0	29.6649	1.12261e-05	31874
2	1	0	1	0	0	1675.55	0.669085	0.66867	0.15117	15	0.0757318	11	0	43.7481	0.000101083	4423.31
2	1	0	1	0	0	1689.37	0.661794	0.661318	0.0899248	15	0.0793433	11	0	57.5721	5.94689e-05	7354.12
2	0	0	0	0	0	1703.46	0.591378	0.590952	-0.00462564	15	0.0796498	11	0	2.3971	-2.73353e-06	127756
2	0	0	1	0	0	1717.54	0.520961	0.520473	-0.0107241	15	0.0795318	11	0	16.4804	-5.58159e-06	48533.1
2	0	0	1	0	0	1731.62	0.450545	0.450087	-0.0120295	15	0.0793724	11	0	30.5637	-5.4143e-06	37415.3
2	0	0	0	0	0	1731.73	0.450021	0.44963	-0.0106906	15	0.0793709	11	0	30.6677	-4.80682e-06	42058.4

File: 20251112_2-148_002_alpha_reproducibility_2_Na2_01_CVA_C02.mpt
EC-Lab ASCII FILE
Nb header lines : 66

Cyclic Voltammetry Advanced

Run on channel : 2 (SN 69290)
User :
CE vs. WE compliance from -10 V to 10 V
Electrode connection : standard
Potential control : Ewe
Ewe ctrl range : min = -1.00 V, max = 1.00 V
Safety Limits :
	Do not start on E overload
Acquisition started on : 11/12/2025 15:15:43.590
Loaded Setting File :  C:\Users\User\Documents\EC-Lab\Data\Yatsuzuka\20251112_2-148_alpha_reproducibility\20251112_2-148_002_alpha_reproducibility_2_K1.mps
Saved on :
	File : 20251112_2-148_002_alpha_reproducibility_2_Na2_01_CVA_C02.mpr
	Directory : C:\Users\User\Documents\EC-Lab\Data\Yatsuzuka\20251112_2-148_alpha_reproducibility\
	Host : 192.109.209.127
Device : SP-150e (SN .003883)
Address : 192.109.209.128
EC-LAB for windows v11.52 (software)
Internet server v11.52 (firmware)
Command interpretor v11.50 (firmware)
Electrode material :
Initial state :
Electrolyte :
Comments :
Electrode surface area : 0.001 cm2
Characteristic mass : 0.001 g
Equivalent Weight : 0.000 g/eq.
Density : 0.000 g/cm3
Volume (V) : 0.001 cm3
Cycle Definition : Charge/Discharge alternance
Ei (V)              0.350
vs.                 Ref
ti (h:m:s)          0:00:10.0000
dti (s)             0.0000
dE/dt               10.000
dE/dt unit          mV/s
E1 (V)              0.450
vs.                 Ref
t1 (h:m:s)          0:00:0.0000
dt1 (s)             0.1000
Step percent        50
N                   10
E range min (V)     -1.000
E range max (V)     1.000
I Range             Auto
I Range min         Unset
I Range max         Unset
I Range init        Unset
Bandwidth           5
E2 (V)              0.350
vs.                 Ref
t2 (h:m:s)          0:00:0.0000
dt2 (s)             0.1000
nc cycles           9
nr                  1
Reverse Scan        0
Ef (V)              0.000
vs.                 Eoc
tf (h:m:s)          0:00:0.0000
dtf (s)             0.1000

mode	ox/red	error	control changes	Ns changes	counter inc.	time/s	control/V	Ewe/V	<I>/mA	cycle number	(Q-Qo)/C	I Range	Ns	step time/s	Pwe/W	Rwe/Ohm
2	1	0	1	0	0	0.000000000000000E+000	0.349989	0.349534	0.00641367	1	0.0000000E+000	13	0	0.000000000000000E+000	2.24179e-06	54498.2
2	1	0	1	0	0	1.8753	0.368742	0.368299	0.0387615	1	6.01951e-05	13	0	1.8478	1.42758e-05	9501.67
2	1	0	1	0	0	3.7731	0.387719	0.387314	0.0366059	1	0.000120119	13	0	3.7456	1.4178e-05	10580.7
2	1	0	1	0	0	5.6709	0.406697	0.406302	0.0291785	1	0.000176745	13	0	5.6434	1.18553e-05	13924.7
2	1	0	1	0	0	7.5686	0.425673	0.42522	0.021652	1	0.000230248	13	0	7.5411	9.20686e-06	19638.8
2	1	0	1	0	0	9.4664	0.444653	0.444138	0.021787	1	0.000281347	13	0	9.4389	9.67644e-06	20385.5
2	0	0	1	0	0	11.3399	0.436611	0.436136	-0.0301323	1	0.000265822	13	0	1.2486	-1.31418e-05	14474.1
2	0	0	1	0	0	13.2376	0.417634	0.417106	-0.0307587	1	0.000217329	13	0	3.1463	-1.28296e-05	13560.6
2	0	0	1	0	0	15.1353	0.398656	0.398149	-0.0273376	1	0.000164307	13	0	5.044	-1.08844e-05	14564.1
2	0	0	1	0	0	17.0331	0.379679	0.379176	-0.0255575	1	0.000106403	13	0	6.9418	-9.69078e-06	14836.2
2	0	0	1	0	0	18.9309	0.360701	0.36019	-0.0328394	1	4.28374e-05	13	0	8.8396	-1.18284e-05	10968.2
2	1	0	1	0	1	20.7903	0.357905	0.357459	0.0379092	2	2.62353e-05	13	0	0.6942	1.3551e-05	9429.34
2	1	0	1	0	1	22.688	0.376882	0.376456	0.0304718	2	8.6158e-05	13	0	2.5919	1.14713e-05	12354.2
2	1	0	1	0	1	24.5857	0.39586	0.395414	0.0236224	2	0.000143798	13	0	4.4896	9.34063e-06	16739
2	1	0	1	0	1	26.4835	0.414837	0.414391	0.0285902	2	0.000198453	13	0	6.3874	1.18475e-05	14494.2
2	1	0	1	0	1	28.3813	0.433815	0.433315	0.0329577	2	0.000250647	13	0	8.2852	1.42811e-05	13147.6
2	0	0	1	0	1	30.2248	0.447748	0.447254	-0.0229793	2	0.000289823	13	0	0.1499	-1.02776e-05	19463.4
2	0	0	1	0	1	32.1225	0.428771	0.428282	-0.0208642	2	0.000244882	13	0	2.0476	-8.93576e-06	20527.1
2	0	0	1	0	1	34.0203	0.409793	0.409307	-0.0225288	2	0.000194548	13	0	3.9454	-9.22118e-06	18168.2
2	0	0	1	0	1	35.9181	0.390816	0.390389	-0.0319628	2	0.000139791	13	0	5.8432	-1.24779e-05	12213.9
2	0	0	1	0	1	37.8158	0.371838	0.371326	-0.0393967	2	7.98648e-05	13	0	7.7409	-1.4629e-05	9425.3
2	0	0	1	0	1	39.7135	0.352861	0.352396	-0.0377069	2	1.37738e-05	13	0	9.6386	-1.32877e-05	9345.67
2	1	0	1	0	0	41.4781	0.364796	0.364351	0.0291446	3	4.70031e-05	13	0	1.3984	1.06189e-05	12501.5
2	1	0	1	0	0	43.3758	0.383774	0.383369	0.0366486	3	0.000106374	13	0	3.2961	1.40499e-05	10460.7
2	1	0	1	0	0	45.2735	0.402751	0.402368	0.0329592	3	0.000163077	13	0	5.1938	1.32617e-05	12208.1
2	1	0	1	0	0	47.1713	0.421729	0.421323	0.0224512	3	0.0002168	13	0	7.0916	9.45922e-06	18766.1
2	1	0	1	0	0	49.0691	0.440706	0.440237	0.0240126	3	0.000268137	13	0	8.9894	1.05712e-05	18333.6
2	0	0	1	0	0	50.8726	0.441256	0.440783	-0.0175566	3	0.000274461	13	0	0.7991	-7.73866e-06	25106.4
2	0	0	1	0	0	52.7703	0.422278	0.42179	-0.0300397	3	0.000227264	13	0	2.6968	-1.26704e-05	14041.1
2	0	0	1	0	0	54.6681	0.403301	0.402851	-0.0305267	3	0.000175463	13	0	4.5946	-1.22977e-05	13196.7
2	0	0	1	0	0	56.5659	0.384323	0.383864	-0.0253818	3	0.000119075	13	0	6.4924	-9.74317e-06	15123.6
2	0	0	1	0	0	58.4636	0.365347	0.364894	-0.0290202	3	5.73958e-05	13	0	8.3901	-1.05893e-05	12573.8
2	1	0	1	0	1	60.2881	0.352911	0.352481	0.0246646	4	8.95744e-06	13	0	0.2598	8.69379e-06	14291
2	1	0	1	0	1	62.1858	0.371888	0.371444	0.0346577	4	6.8711e-05	13	0	2.1575	1.28734e-05	10717.5
2	1	0	1	0	1	64.0835	0.390866	0.39048	0.0349377	4	0.00012716	13	0	4.0552	1.36425e-05	11176.5
2	1	0	1	0	1	65.9813	0.409843	0.409406	0.0282953	4	0.000182501	13	0	5.953	1.15843e-05	14469.1
2	1	0	1	0	1	67.8791	0.428821	0.428373	0.0229526	4	0.000235361	13	0	7.8508	9.83225e-06	18663.4
2	1	0	1	0	1	69.7768	0.447798	0.447324	0.0320442	4	0.00028595	13	0	9.7485	1.43341e-05	13959.6
2	0	0	1	0	1	71.6803	0.433165	0.432641	-0.030622	4	0.000253948	13	0	1.6581	-1.32483e-05	14128.4
2	0	0	1	0	1	73.578	0.414188	0.413706	-0.0206451	4	0.000204676	13	0	3.5558	-8.54101e-06	20038.9
2	0	0	1	0	1	75.4757	0.39521	0.394724	-0.0360221	4	0.000150955	13	0	5.4535	-1.42188e-05	10957.9
2	0	0	1	0	1	77.3735	0.376233	0.375801	-0.0262222	4	9.24195e-05	13	0	7.3513	-9.85433e-06	14331.4
2	0	0	1	0	1	79.2713	0.357255	0.356759	-0.0411402	4	2.80683e-05	13	0	9.2491	-1.46771e-05	8671.8
2	1	0	1	0	0	81.1357	0.3614	0.360957	0.0371084	5	3.43268e-05	13	0	1.1088	1.33945e-05	9727.11
2	1	0	1	0	0	83.0334	0.380378	0.379913	0.0254373	5	9.40351e-05	13	0	3.0065	9.66396e-06	14935.3
2	1	0	1	0	0	84.9311	0.399355	0.398933	0.0339424	5	0.00015106	13	0	4.9042	1.35408e-05	11753.2
2	1	0	1	0	0	86.8289	0.418333	0.417874	0.0253622	5	0.000205288	13	0	6.802	1.05982e-05	16476.3
2	1	0	1	0	0	88.7267	0.43731	0.436831	0.0235709	5	0.000257061	13	0	8.6998	1.02965e-05	18532.7
2	0	0	1	0	0	90.6301	0.443653	0.443166	-0.017077	5	0.000277722	13	0	0.5444	-7.56796e-06	25951
2	0	0	1	0	0	92.5279	0.424675	0.424154	-0.0307649	5	0.000231295	13	0	2.4422	-1.3049e-05	13786.9
2	0	0	1	0	0	94.4256	0.405698	0.405253	-0.0248845	5	0.000180145	13	0	4.3399	-1.00845e-05	16285.4
2	0	0	1	0	0	96.3233	0.38672	0.386264	-0.0311355	5	0.000124512	13	0	6.2376	-1.20265e-05	12405.9
2	0	0	1	0	0	98.2211	0.367743	0.367256	-0.0361339	5	6.35888e-05	13	0	8.1354	-1.32704e-05	10163.8
2	0	0	1	0	1	100.025	0.350314	0.349862	0.00539665	6	9.9004e-07	13	0	0.000000000000000E+000	1.88808e-06	64829.5
2	1	0	1	0	1	101.983	0.36989	0.36947	0.0349615	6	6.08885e-05	13	0	1.9578	1.29172e-05	10567.9
[...]
2	0	0	1	0	0	130.427	0.445651	0.445146	-0.0160772	7	0.000281994	13	0	0.3446	-7.15668e-06	27688.1
2	0	0	1	0	0	132.325	0.426673	0.426192	-0.0320597	7	0.000236262	13	0	2.2424	-1.36636e-05	13293.7
2	0	0	1	0	0	134.223	0.407696	0.407226	-0.0209771	7	0.000185596	13	0	4.1402	-8.54243e-06	19412.9
2	0	0	1	0	0	136.121	0.388718	0.388227	-0.0367954	7	0.000130511	13	0	6.0379	-1.4285e-05	10551
2	0	0	1	0	0	138.018	0.369741	0.369301	-0.0273065	7	7.03852e-05	13	0	7.9356	-1.00843e-05	13524.3
2	0	0	1	0	0	139.916	0.350763	0.350274	-0.0426654	7	4.08249e-06	13	0	9.8334	-1.49446e-05	8209.8
2	1	0	1	0	1	141.781	0.367893	0.367416	0.0346463	8	5.51502e-05	13	0	1.693	1.27296e-05	10604.8
2	1	0	1	0	1	143.678	0.386869	0.38644	0.0246235	8	0.000113982	13	0	3.5907	9.5155e-06	15693.9
2	1	0	1	0	1	145.576	0.405848	0.405421	0.0353261	8	0.000169986	13	0	5.4884	1.4322e-05	11476.5
2	1	0	1	0	1	147.474	0.424825	0.424386	0.0230046	8	0.00022321	13	0	7.3862	9.76284e-06	18447.8
2	1	0	1	0	1	149.372	0.443803	0.443369	0.0284691	8	0.000274337	13	0	9.284	1.26223e-05	15573.7
2	0	0	1	0	1	151.275	0.437161	0.436666	-0.0215272	8	0.00026297	13	0	1.2585	-9.40021e-06	20284.3
2	0	0	1	0	1	153.173	0.418183	0.417697	-0.0306021	8	0.000214826	13	0	3.1563	-1.27824e-05	13649.3
2	0	0	1	0	1	155.071	0.399206	0.398714	-0.0245246	8	0.00016225	13	0	5.0541	-9.77829e-06	16257.7
2	0	0	1	0	1	156.968	0.380228	0.379774	-0.0373224	8	0.000105068	13	0	6.9518	-1.41741e-05	10175.5
2	0	0	1	0	1	158.866	0.361251	0.360777	-0.028747	8	4.23395e-05	13	0	8.8495	-1.03712e-05	12550.1
2	1	0	1	0	0	160.73	0.357405	0.356906	0.0351194	9	2.25035e-05	13	0	0.7092	1.25343e-05	10162.6
2	1	0	1	0	0	162.628	0.376383	0.375888	0.0305755	9	8.23342e-05	13	0	2.607	1.1493e-05	12293.8
2	1	0	1	0	0	164.526	0.39536	0.394958	0.0251059	9	0.000139958	13	0	4.5047	9.91578e-06	15731.7
2	1	0	1	0	0	166.424	0.414338	0.413835	0.0348242	9	0.00019461	13	0	6.4024	1.44115e-05	11883.5
2	1	0	1	0	0	168.321	0.433315	0.4329	0.0217181	9	0.000246863	13	0	8.3002	9.4018e-06	19932.7
2	0	0	1	0	0	170.212	0.447773	0.447271	-0.0233158	9	0.000287276	12	0	0.1324	-1.04285e-05	19183.2
2	0	0	1	0	0	172.128	0.428621	0.428142	-0.0188404	9	0.000242027	13	0	2.0476	-8.06638e-06	22724.6
2	0	0	1	0	0	174.025	0.409643	0.409138	-0.0329856	9	0.000191779	13	0	3.9454	-1.34957e-05	12403.5
2	0	0	1	0	0	175.923	0.390667	0.390225	-0.0302651	9	0.000137334	13	0	5.8431	-1.18102e-05	12893.6
2	0	0	1	0	0	177.821	0.371687	0.371267	-0.0281799	9	7.77896e-05	13	0	7.7409	-1.04623e-05	13174.9
2	0	0	1	0	0	179.719	0.352711	0.352258	-0.0420454	9	1.23417e-05	13	0	9.6386	-1.48108e-05	8378.05
2	1	0	1	0	1	181.578	0.365895	0.365494	0.0262222	10	4.98622e-05	13	0	1.4932	9.58407e-06	13938.4
2	1	0	1	0	1	183.476	0.384873	0.384439	0.0310603	10	0.000108955	13	0	3.391	1.19408e-05	12377.2
2	1	0	1	0	1	185.374	0.40385	0.403407	0.0340221	10	0.000165199	13	0	5.2887	1.37247e-05	11857.2
2	1	0	1	0	1	187.271	0.422828	0.422414	0.0213945	10	0.000218694	13	0	7.1864	9.03733e-06	19744.1
2	1	0	1	0	1	189.169	0.441805	0.44141	0.0287122	10	0.000270024	13	0	9.0842	1.26739e-05	15373.6
2	0	0	1	0	1	191.077	0.439108	0.438636	-0.0175903	10	0.000268568	13	0	1.0637	-7.71576e-06	24936.2
2	0	0	1	0	1	192.975	0.420131	0.419601	-0.0317865	10	0.000220906	13	0	2.9615	-1.33376e-05	13200.6
2	0	0	1	0	1	194.873	0.401153	0.400733	-0.028399	10	0.000168916	13	0	4.8593	-1.13804e-05	14110.8
2	0	0	1	0	1	196.771	0.382177	0.381714	-0.0326112	10	0.000112212	13	0	6.757	-1.24481e-05	11705
2	0	0	1	0	1	198.668	0.363198	0.362748	-0.0317709	10	5.02848e-05	13	0	8.6547	-1.15249e-05	11417.6
2	0	0	0	0	1	199.986	0.349989	0.349553	-0.0279534	10	3.57793e-06	13	0	9.9722	-9.77118e-06	12504.8