Folder: SI_for_publications/ACS_Catal_2026/Figures_Na_K/main_figures/data/EC/20251112_2-148_alpha_reproducibility (part 8)

File: 20251112_2-148_002_alpha_reproducibility_2_K1_03_CVA_C02.mpt
EC-Lab ASCII FILE
Nb header lines : 66

Cyclic Voltammetry Advanced

Run on channel : 2 (SN 69290)
User :
CE vs. WE compliance from -10 V to 10 V
Electrode connection : standard
Potential control : Ewe
Ewe ctrl range : min = -1.00 V, max = 1.00 V
Safety Limits :
	Do not start on E overload
Acquisition started on : 11/12/2025 13:25:42.107
Loaded Setting File :  C:\Users\User\Documents\EC-Lab\Data\Yatsuzuka\20251112_2-148_alpha_reproducibility\20251112_2-148_002_alpha_reproducibility_2_K1.mps
Saved on :
	File : 20251112_2-148_002_alpha_reproducibility_2_K1_03_CVA_C02.mpr
	Directory : C:\Users\User\Documents\EC-Lab\Data\Yatsuzuka\20251112_2-148_alpha_reproducibility\
	Host : 192.109.209.127
Device : SP-150e (SN .003883)
Address : 192.109.209.128
EC-LAB for windows v11.52 (software)
Internet server v11.52 (firmware)
Command interpretor v11.50 (firmware)
Electrode material :
Initial state :
Electrolyte :
Comments :
Electrode surface area : 0.001 cm2
Characteristic mass : 0.001 g
Equivalent Weight : 0.000 g/eq.
Density : 0.000 g/cm3
Volume (V) : 0.001 cm3
Cycle Definition : Charge/Discharge alternance
Ei (V)              0.450
vs.                 Ref
ti (h:m:s)          0:00:10.0000
dti (s)             0.0000
dE/dt               5.000
dE/dt unit          mV/s
E1 (V)              0.700
vs.                 Ref
t1 (h:m:s)          0:00:0.0000
dt1 (s)             0.1000
Step percent        50
N                   10
E range min (V)     -1.000
E range max (V)     1.000
I Range             10 mA
I Range min         Unset
I Range max         Unset
I Range init        Unset
Bandwidth           5
E2 (V)              0.450
vs.                 Ref
t2 (h:m:s)          0:00:0.0000
dt2 (s)             0.1000
nc cycles           14
nr                  1
Reverse Scan        0
Ef (V)              0.000
vs.                 Eoc
tf (h:m:s)          0:00:0.0000
dtf (s)             0.1000

mode	ox/red	error	control changes	Ns changes	counter inc.	time/s	control/V	Ewe/V	<I>/mA	cycle number	(Q-Qo)/C	I Range	Ns	step time/s	Pwe/W	Rwe/Ohm
2	1	0	0	0	0	231.719	0.450021	0.449592	0.0144042	1	0.0000000E+000	11	0	0.000000000000000E+000	6.47602e-06	31212.5
2	1	0	1	0	0	245.558	0.519213	0.51878	0.0195178	1	0.000258371	11	0	13.7837	1.01255e-05	26579.8
2	1	0	0	0	0	259.442	0.588631	0.588176	0.0631857	1	0.000769669	11	0	27.6672	3.71643e-05	9308.7
2	1	0	0	0	0	273.325	0.658049	0.657599	0.609866	1	0.00399646	11	0	41.5508	0.000401047	1078.27
2	1	0	1	0	0	286.959	0.673781	0.673321	0.868365	1	0.0211653	11	0	55.1849	0.000584688	775.39
2	1	0	1	0	0	300.843	0.604362	0.603882	0.0428364	1	0.0252605	11	0	69.0685	2.58681e-05	14097.4
2	0	0	0	0	0	314.726	0.534945	0.534484	-0.00954661	1	0.0253408	11	0	5.2937	-5.10251e-06	55986.7
2	0	0	0	0	0	328.61	0.465527	0.465072	-0.0143362	1	0.0251985	11	0	19.1773	-6.66739e-06	32440.3
2	1	0	0	0	1	342.263	0.502783	0.502331	0.0175175	2	0.0253171	11	0	10.5426	8.79956e-06	28676
2	1	0	1	0	1	356.146	0.5722	0.571718	0.0266897	2	0.0255631	11	0	24.4261	1.5259e-05	21421
2	1	0	1	0	1	370.03	0.641619	0.641172	0.276024	2	0.0268758	11	0	38.3097	0.000176979	2322.89
2	1	0	1	0	1	383.654	0.69026	0.689756	1.32942	2	0.0402778	11	0	51.9339	0.000916975	518.84
2	1	0	0	0	1	397.538	0.620843	0.620397	0.0819659	2	0.0472591	11	0	65.8174	5.08514e-05	7568.97
2	0	0	1	0	1	411.421	0.551426	0.550925	-0.00702569	2	0.0475181	11	0	3.2961	-3.87063e-06	78415.8
2	1	0	1	0	1	425.305	0.482007	0.481548	-0.00880583	2	0.047385	11	0	17.1797	-4.24043e-06	54685.2
2	0	0	1	0	0	438.958	0.486303	0.485833	0.0116837	3	0.0474087	11	0	7.2465	5.67634e-06	41581.9
2	1	0	1	0	0	452.841	0.55572	0.555273	0.0207041	3	0.0476224	11	0	21.13	1.14964e-05	26819.5
2	1	0	1	0	0	466.725	0.625138	0.624673	0.131086	3	0.0482934	11	0	35.0136	8.18861e-05	4765.35
2	1	0	1	0	0	480.608	0.694555	0.694099	1.55771	3	0.0571595	11	0	48.8971	0.0010812	445.591
2	1	0	1	0	0	494.233	0.637323	0.6369	0.176916	3	0.0681674	11	0	62.5213	0.000112678	3600.01
2	0	0	1	0	0	508.116	0.567906	0.567456	-0.00179932	3	0.0688241	11	0	0.2996	-1.02104e-06	315372
2	0	0	1	0	0	522	0.498488	0.497963	-0.0137388	3	0.0687128	11	0	13.6838	-6.84142e-06	36245
2	1	0	1	0	1	535.653	0.469822	0.469313	0.0157717	4	0.0686505	11	0	3.8954	7.40186e-06	29756.6
2	1	0	1	0	1	549.536	0.539239	0.53876	0.0146632	4	0.0688524	11	0	17.7789	7.89992e-06	36742.4
2	1	0	1	0	1	563.42	0.608658	0.608203	0.0634925	4	0.0692484	11	0	31.6625	3.86163e-05	9579.14
2	1	0	0	0	1	577.303	0.678075	0.677584	0.960143	4	0.0741112	11	0	45.546	0.000650578	705.712
2	1	0	1	0	1	590.928	0.653804	0.65334	0.307456	4	0.0875536	11	0	59.1702	0.000200873	2124.99
2	1	0	1	0	1	604.811	0.584386	0.583941	0.00522535	4	0.0889203	11	0	73.0538	3.0513e-06	111752
2	0	0	1	0	1	618.695	0.514968	0.514471	-0.0116861	4	0.0888478	11	0	10.7872	-6.01214e-06	44024.3
2	1	0	1	0	0	632.348	0.453341	0.452894	0.0121701	5	0.0887058	11	0	0.5993	5.51175e-06	37213.8
2	1	0	0	0	0	646.231	0.522759	0.522276	0.0142541	5	0.0889016	11	0	14.4828	7.44458e-06	36640.3
2	1	0	0	0	0	660.115	0.592177	0.591709	0.036157	5	0.0891784	11	0	28.3664	2.13944e-05	16365
2	1	0	1	0	0	673.998	0.661594	0.661162	0.524206	5	0.091663	11	0	42.2499	0.000346585	1261.26
2	1	0	1	0	0	687.622	0.670284	0.66978	0.625836	5	0.105881	11	0	55.8741	0.000419173	1070.22
2	1	0	1	0	0	701.506	0.600866	0.600396	0.0221602	5	0.108741	11	0	69.7577	1.33049e-05	27093.4
2	0	0	0	0	0	715.39	0.531449	0.530958	-0.00974411	5	0.108743	11	0	7.4911	-5.17371e-06	54490.1
2	0	0	1	0	0	729.273	0.462032	0.461581	-0.0142763	5	0.108591	11	0	21.3746	-6.58966e-06	32332
2	1	0	0	0	1	742.926	0.506279	0.505843	0.0151933	6	0.108715	11	0	11.1868	7.6854e-06	33293.9
2	1	0	1	0	1	756.81	0.575696	0.575236	0.020914	6	0.10894	11	0	25.0703	1.20305e-05	27504.8
2	1	0	1	0	1	770.693	0.645114	0.644646	0.270992	6	0.110205	11	0	38.9538	0.000174694	2378.84
2	1	0	0	0	1	784.317	0.686765	0.686293	1.00541	6	0.122561	11	0	52.578	0.000690008	682.598
2	1	0	0	0	1	798.201	0.617347	0.616954	0.057915	6	0.127608	11	0	66.4616	3.57309e-05	10652.7
2	1	0	1	0	1	812.084	0.547929	0.547486	-0.00459377	6	0.12776	11	0	4.4947	-2.51502e-06	119180
2	0	0	1	0	1	825.968	0.478511	0.478043	-0.0133867	6	0.127622	11	0	18.3783	-6.39942e-06	35710.3
2	1	0	1	0	0	839.621	0.489799	0.489361	0.0162963	7	0.12766	11	0	7.8907	7.97477e-06	30029
2	1	0	1	0	0	853.505	0.559216	0.558746	0.0193996	7	0.127864	11	0	21.7742	1.08394e-05	28802
2	1	0	1	0	0	867.388	0.628633	0.628163	0.132488	7	0.128537	11	0	35.6577	8.32238e-05	4741.3
2	1	0	1	0	0	881.272	0.698051	0.697588	1.52215	7	0.137474	11	0	49.5413	0.00106184	458.29
2	1	0	1	0	0	894.896	0.633827	0.633387	0.128869	7	0.14634	11	0	63.1655	8.16237e-05	4914.99
2	1	0	1	0	0	908.779	0.56441	0.563914	-0.00211107	7	0.146792	11	0	1.2984	-1.19046e-06	267122
2	1	0	1	0	0	922.663	0.494992	0.494528	-0.0102827	7	0.146675	11	0	15.182	-5.08507e-06	48093.4
2	1	0	1	0	1	936.316	0.473318	0.472791	0.0156366	8	0.14663	11	0	4.5946	7.39285e-06	30236.2
2	1	0	1	0	1	950.199	0.542735	0.542251	0.0173633	8	0.146825	11	0	18.4781	9.41528e-06	31229.7
2	1	0	1	0	1	964.083	0.612154	0.611702	0.0692856	8	0.147225	11	0	32.3617	4.23821e-05	8828.71
2	1	0	0	0	1	977.967	0.681571	0.681151	0.983361	8	0.152329	11	0	46.2452	0.000669817	692.676
2	1	0	1	0	1	991.591	0.650308	0.649828	0.270201	8	0.16466	11	0	59.8694	0.000175584	2404.98
2	1	0	1	0	1	1005.47	0.58089	0.580419	0.00198764	8	0.165761	11	0	73.7529	1.15366e-06	292014
[...]
2	0	0	1	0	1	1212.75	0.544433	0.543987	-0.00848378	10	0.202917	11	0	5.4935	-4.61506e-06	64120.8
2	0	0	1	0	1	1226.63	0.475016	0.474584	-0.0128618	10	0.202778	11	0	19.377	-6.10399e-06	36898.8
2	1	0	1	0	0	1240.28	0.493294	0.492802	0.0149646	11	0.202833	11	0	8.5898	7.37456e-06	32931.2
2	1	0	1	0	0	1254.17	0.562712	0.562253	0.0203773	11	0.203034	11	0	22.4734	1.14572e-05	27592.1
2	1	0	1	0	0	1268.05	0.632129	0.63166	0.148663	11	0.203756	11	0	36.3569	9.39044e-05	4248.94
2	1	0	1	0	0	1281.68	0.699749	0.699302	1.50906	11	0.21291	11	0	49.9811	0.00105529	463.403
2	1	0	1	0	0	1295.56	0.630332	0.629895	0.10384	11	0.220691	11	0	63.8646	6.54081e-05	6066.04
2	1	0	1	0	0	1309.44	0.560914	0.560512	-0.00182034	11	0.221036	11	0	2.4971	-1.02032e-06	307915
2	1	0	1	0	0	1323.33	0.491497	0.49103	-0.00936708	11	0.220915	11	0	16.3806	-4.59952e-06	52420.8
2	1	0	1	0	1	1336.98	0.476813	0.476356	0.0157741	12	0.22089	11	0	5.2937	7.51408e-06	30198.6
2	1	0	1	0	1	1350.86	0.546232	0.545747	0.0154997	12	0.221085	11	0	19.1773	8.45894e-06	35210.1
2	1	0	0	0	1	1364.75	0.615649	0.615194	0.0730197	12	0.221511	11	0	33.0608	4.49212e-05	8425.04
2	1	0	0	0	1	1378.63	0.685067	0.684623	1.14756	12	0.227332	11	0	46.9444	0.000785645	596.591
2	1	0	1	0	1	1392.25	0.646813	0.646396	0.250245	12	0.240315	11	0	60.5685	0.000161758	2583.05
2	1	0	1	0	1	1406.14	0.577394	0.576934	0.00224869	12	0.241268	11	0	0.1998	1.29734e-06	256565
2	0	0	0	0	1	1420.02	0.507977	0.507526	-0.0122437	12	0.241174	11	0	12.6849	-6.21399e-06	41452
2	0	0	1	0	0	1433.67	0.460334	0.459884	0.0113755	13	0.241069	11	0	1.9977	5.23143e-06	40427.5
2	1	0	0	0	0	1447.56	0.529751	0.529295	0.0161833	13	0.241259	11	0	15.8812	8.56571e-06	32706.3
2	1	0	1	0	0	1461.44	0.599168	0.598734	0.0420177	13	0.241548	11	0	29.7647	2.51575e-05	14249.6
2	1	0	1	0	0	1475.32	0.668587	0.668133	0.651445	13	0.24461	11	0	43.6483	0.000435252	1025.62
2	1	0	1	0	0	1488.95	0.663292	0.662822	0.507996	13	0.259271	11	0	57.2725	0.000336711	1304.78
2	1	0	0	0	0	1502.83	0.593875	0.593381	0.0121303	13	0.261406	11	0	71.156	7.19792e-06	48917.1
2	0	0	1	0	0	1516.72	0.524458	0.524005	-0.00988929	13	0.261364	11	0	9.1891	-5.18203e-06	52987.1
2	0	0	1	0	0	1530.6	0.455039	0.454553	-0.0128698	13	0.261215	11	0	23.0727	-5.85e-06	35319.3
2	1	0	1	0	1	1544.25	0.51327	0.512795	0.0130835	14	0.261374	11	0	12.6401	6.70917e-06	39194
2	1	0	1	0	1	1558.14	0.582688	0.582254	0.0247711	14	0.261603	11	0	26.5236	1.44231e-05	23505.3
2	1	0	1	0	1	1572.02	0.652106	0.651678	0.344149	14	0.263161	11	0	40.4072	0.000224275	1893.59
2	1	0	0	0	1	1585.64	0.679773	0.679315	0.923976	14	0.277281	11	0	54.0314	0.000627671	735.208
2	1	0	1	0	1	1599.53	0.610355	0.609882	0.0360712	14	0.28164	11	0	67.9149	2.19992e-05	16907.7
2	1	0	1	0	1	1613.41	0.540937	0.540472	-0.00565689	14	0.281703	11	0	5.8931	-3.05739e-06	95542.2
2	1	0	1	0	1	1627.29	0.47152	0.471063	-0.0111169	14	0.281565	11	0	19.7766	-5.23675e-06	42373.6
2	1	0	1	0	0	1640.95	0.49679	0.496334	0.0158758	15	0.281639	11	0	9.289	7.87971e-06	31263.5
2	1	0	1	0	0	1654.83	0.566207	0.565771	0.0199885	15	0.281842	11	0	23.1725	1.13089e-05	28304.9
2	1	0	1	0	0	1668.71	0.635626	0.635188	0.169963	15	0.282648	11	0	37.0561	0.000107958	3737.22
2	1	0	1	0	0	1682.34	0.696253	0.695806	1.54578	15	0.293505	11	0	50.6803	0.00107556	450.133
2	1	0	1	0	0	1696.22	0.626836	0.626369	0.0953301	15	0.301681	11	0	64.5638	5.97119e-05	6570.53
2	1	0	1	0	0	1710.11	0.557418	0.556935	-0.00329356	15	0.301969	11	0	2.8966	-1.8343e-06	169098
2	0	0	1	0	0	1723.99	0.488	0.487473	-0.00972777	15	0.301846	11	0	16.7801	-4.74203e-06	50111.5
2	0	0	1	0	0	1731.58	0.450021	0.449496	-0.0103062	15	0.301757	11	0	24.3752	-4.6326e-06	43614.2

File: 20251112_2-148_002_alpha_reproducibility_2_K2_01_CVA_C02.mpt
EC-Lab ASCII FILE
Nb header lines : 66

Cyclic Voltammetry Advanced

Run on channel : 2 (SN 69290)
User :
CE vs. WE compliance from -10 V to 10 V
Electrode connection : standard
Potential control : Ewe
Ewe ctrl range : min = -1.00 V, max = 1.00 V
Safety Limits :
	Do not start on E overload
Acquisition started on : 11/12/2025 14:40:45.077
Loaded Setting File :  C:\Users\User\Documents\EC-Lab\Data\Yatsuzuka\20251112_2-148_alpha_reproducibility\20251112_2-148_002_alpha_reproducibility_2_K1.mps
Saved on :
	File : 20251112_2-148_002_alpha_reproducibility_2_K2_01_CVA_C02.mpr
	Directory : C:\Users\User\Documents\EC-Lab\Data\Yatsuzuka\20251112_2-148_alpha_reproducibility\
	Host : 192.109.209.127
Device : SP-150e (SN .003883)
Address : 192.109.209.128
EC-LAB for windows v11.52 (software)
Internet server v11.52 (firmware)
Command interpretor v11.50 (firmware)
Electrode material :
Initial state :
Electrolyte :
Comments :
Electrode surface area : 0.001 cm2
Characteristic mass : 0.001 g
Equivalent Weight : 0.000 g/eq.
Density : 0.000 g/cm3
Volume (V) : 0.001 cm3
Cycle Definition : Charge/Discharge alternance
Ei (V)              0.350
vs.                 Ref
ti (h:m:s)          0:00:10.0000
dti (s)             0.0000
dE/dt               10.000
dE/dt unit          mV/s
E1 (V)              0.450
vs.                 Ref
t1 (h:m:s)          0:00:0.0000
dt1 (s)             0.1000
Step percent        50
N                   10
E range min (V)     -1.000
E range max (V)     1.000
I Range             Auto
I Range min         Unset
I Range max         Unset
I Range init        Unset
Bandwidth           5
E2 (V)              0.350
vs.                 Ref
t2 (h:m:s)          0:00:0.0000
dt2 (s)             0.1000
nc cycles           9
nr                  1
Reverse Scan        0
Ef (V)              0.000
vs.                 Eoc
tf (h:m:s)          0:00:0.0000
dtf (s)             0.1000

mode	ox/red	error	control changes	Ns changes	counter inc.	time/s	control/V	Ewe/V	<I>/mA	cycle number	(Q-Qo)/C	I Range	Ns	step time/s	Pwe/W	Rwe/Ohm
2	0	0	0	0	0	0.000000000000000E+000	0.349989	0.349476	-0.000494439	1	0.0000000E+000	13	0	0.000000000000000E+000	-1.72795e-07	706814
2	1	0	1	0	0	1.9353	0.369341	0.368916	0.0340171	1	6.68363e-05	13	0	1.9078	1.25495e-05	10845
2	1	0	1	0	0	3.8331	0.388319	0.387902	0.0244216	1	0.000129689	13	0	3.8056	9.47321e-06	15883.5
2	1	0	1	0	0	5.7308	0.407296	0.406851	0.0226516	1	0.000188093	13	0	5.7033	9.21583e-06	17961.3
2	1	0	1	0	0	7.6285	0.426274	0.42582	0.0282947	1	0.000242432	13	0	7.601	1.20484e-05	15049.5
2	1	0	1	0	0	9.5263	0.445251	0.444818	0.0330058	1	0.000293752	13	0	9.4988	1.46816e-05	13477
2	0	0	1	0	0	11.3748	0.436263	0.435741	-0.029354	1	0.00027655	13	0	1.2985	-1.27907e-05	14844.4
2	0	0	1	0	0	13.2726	0.417283	0.416764	-0.0233319	1	0.000228229	13	0	3.1963	-9.72389e-06	17862.4
2	0	0	1	0	0	15.1703	0.398307	0.397844	-0.0214194	1	0.000174628	13	0	5.094	-8.52156e-06	18574
2	0	0	1	0	0	17.0681	0.379329	0.378878	-0.0305599	1	0.000115013	13	0	6.9918	-1.15785e-05	12397.9
2	0	0	1	0	0	18.9659	0.360352	0.359854	-0.0445156	1	4.85203e-05	13	0	8.8896	-1.60191e-05	8083.77
2	1	0	1	0	1	20.7903	0.357905	0.357434	0.0377277	2	3.26159e-05	13	0	0.7592	1.34852e-05	9474.06
2	1	0	1	0	1	22.688	0.376882	0.376447	0.041125	2	9.61789e-05	13	0	2.6569	1.54814e-05	9153.71
2	1	0	1	0	1	24.5857	0.39586	0.395454	0.035932	2	0.000156286	13	0	4.5546	1.42095e-05	11005.6
2	1	0	1	0	1	26.4835	0.414837	0.414381	0.0254523	2	0.000212295	13	0	6.4524	1.0547e-05	16280.7
2	1	0	1	0	1	28.3813	0.433815	0.433323	0.0190842	2	0.000264872	13	0	8.3502	8.26965e-06	22705.8
2	0	0	1	0	1	30.2847	0.447149	0.446627	-0.0218141	2	0.000302554	13	0	0.2447	-9.74276e-06	20474.3
2	0	0	1	0	1	32.1825	0.428171	0.427693	-0.0195066	2	0.000257844	13	0	2.1425	-8.34283e-06	21925.6
2	0	0	1	0	1	34.0802	0.409195	0.408741	-0.0215066	2	0.000207102	13	0	4.0402	-8.79064e-06	19005.3
2	0	0	1	0	1	35.9779	0.390216	0.389799	-0.0330434	2	0.000150937	13	0	5.9379	-1.28803e-05	11796.6
2	0	0	1	0	1	37.8757	0.371239	0.370726	-0.0430442	2	8.84938e-05	13	0	7.8357	-1.59576e-05	8612.67
2	0	0	1	0	1	39.7735	0.352261	0.351759	-0.0434534	2	1.88242e-05	13	0	9.7335	-1.52851e-05	8095.09
2	1	0	1	0	0	41.6379	0.366395	0.365935	0.0253507	3	6.21149e-05	13	0	1.6082	9.27671e-06	14434.9
2	1	0	1	0	0	43.5356	0.385372	0.384929	0.0332393	3	0.000124288	13	0	3.5059	1.27947e-05	11580.5
2	1	0	1	0	0	45.4333	0.40435	0.403932	0.0369681	3	0.000182563	13	0	5.4036	1.49326e-05	10926.5
2	1	0	1	0	0	47.3311	0.423327	0.42291	0.0233442	3	0.000236882	13	0	7.3014	9.8725e-06	18116.3
2	1	0	1	0	0	49.2289	0.442305	0.441774	0.0224974	3	0.000288112	13	0	9.1992	9.93879e-06	19636.7
2	0	0	1	0	0	51.1323	0.438659	0.438165	-0.0164759	3	0.000284328	13	0	1.0937	-7.21916e-06	26594.2
2	0	0	1	0	0	53.0301	0.419681	0.419194	-0.0304983	3	0.000236584	13	0	2.9915	-1.27847e-05	13744.8
2	0	0	1	0	0	54.9278	0.400704	0.400198	-0.0352674	3	0.000183463	13	0	4.8892	-1.41139e-05	11347.5
2	0	0	1	0	0	56.8255	0.381726	0.381229	-0.0274174	3	0.000124583	13	0	6.7869	-1.04523e-05	13904.6
2	0	0	1	0	0	58.7233	0.362749	0.362249	-0.0292309	3	5.90917e-05	13	0	8.6847	-1.05889e-05	12392.7
2	1	0	1	0	1	60.5577	0.355607	0.355165	0.0316948	4	2.6474e-05	12	0	0.5294	1.12569e-05	11205.8
2	1	0	1	0	1	62.4855	0.374884	0.374483	0.0324428	4	9.16997e-05	13	0	2.4572	1.21493e-05	11542.9
2	1	0	1	0	1	64.3832	0.393862	0.39339	0.0226975	4	0.000152118	13	0	4.3549	8.92897e-06	17331.9
2	1	0	1	0	1	66.2809	0.41284	0.412358	0.0322361	4	0.000208505	13	0	6.2526	1.32928e-05	12791.8
2	1	0	1	0	1	68.1787	0.431817	0.431374	0.0330543	4	0.000261433	13	0	8.1504	1.42588e-05	13050.5
2	1	0	1	0	1	70.0222	0.449747	0.449223	-0.00112783	4	0.000309244	13	0	9.9939	-5.06648e-07	398308
2	0	0	1	0	1	71.92	0.430767	0.430298	-0.0204659	4	0.000266186	13	0	1.8479	-8.80643e-06	21025.1
2	0	0	1	0	1	73.8177	0.411791	0.411274	-0.0352797	4	0.000216112	13	0	3.7456	-1.45096e-05	11657.5
2	0	0	1	0	1	75.7155	0.392813	0.392301	-0.0313968	4	0.000160701	13	0	5.6434	-1.2317e-05	12494.9
2	0	0	1	0	1	77.6133	0.373836	0.37336	-0.0262793	4	9.92287e-05	13	0	7.5412	-9.81164e-06	14207.4
2	0	0	1	0	1	79.511	0.354857	0.354435	-0.0429353	4	3.06841e-05	13	0	9.4389	-1.52178e-05	8255.11
2	1	0	1	0	0	81.3354	0.363398	0.362971	0.0414467	5	5.42551e-05	13	0	1.2585	1.50439e-05	8757.53
2	1	0	1	0	0	83.2331	0.382376	0.381939	0.0324206	5	0.000117026	13	0	3.1562	1.23827e-05	11780.8
2	1	0	1	0	0	85.1309	0.401353	0.400871	0.0230532	5	0.000175845	13	0	5.054	9.24137e-06	17389
2	1	0	1	0	0	87.0287	0.420331	0.419871	0.0347688	5	0.000230723	13	0	6.9518	1.45984e-05	12076.1
2	1	0	1	0	0	88.9264	0.439308	0.438861	0.0250324	5	0.000282392	13	0	8.8495	1.09858e-05	17531.7
2	0	0	1	0	0	90.8299	0.441655	0.441117	-0.0259183	5	0.000293408	13	0	0.8091	-1.1433e-05	17019.5
2	0	0	1	0	0	92.7276	0.422678	0.42217	-0.0185733	5	0.000246693	13	0	2.7068	-7.84109e-06	22730
2	0	0	1	0	0	94.6253	0.4037	0.403253	-0.0322934	5	0.000194489	13	0	4.6045	-1.30224e-05	12487.2
2	0	0	1	0	0	96.5231	0.384723	0.384251	-0.039031	5	0.000136491	13	0	6.5023	-1.49977e-05	9844.77
2	0	0	1	0	0	98.4209	0.365745	0.365303	-0.0293476	5	7.20945e-05	13	0	8.4001	-1.07207e-05	12447.5
2	1	0	1	0	1	100.225	0.352311	0.351859	0.0324806	6	1.86295e-05	13	0	0.1998	1.14286e-05	10832.9
2	1	0	1	0	1	102.123	0.371289	0.370897	0.0257977	6	8.19938e-05	13	0	2.0976	9.5683e-06	14377.1
[...]
2	0	0	1	0	0	130.427	0.445651	0.445171	-0.0279523	7	0.000304184	13	0	0.4095	-1.24436e-05	15926.1
2	0	0	1	0	0	132.325	0.426673	0.426165	-0.0245195	7	0.000258748	13	0	2.3073	-1.04494e-05	17380.6
2	0	0	1	0	0	134.223	0.407696	0.407213	-0.0216631	7	0.000207645	13	0	4.2051	-8.8215e-06	18797.6
2	0	0	1	0	0	136.121	0.388718	0.388257	-0.0394738	7	0.000151046	13	0	6.1028	-1.5326e-05	9835.81
2	0	0	1	0	0	138.018	0.369741	0.36921	-0.0295566	7	8.81684e-05	13	0	8.0005	-1.09126e-05	12491.6
2	0	0	1	0	0	139.916	0.350763	0.350273	-0.0379326	7	1.81279e-05	13	0	9.8983	-1.32868e-05	9234.09
2	1	0	1	0	1	141.781	0.367893	0.367496	0.0324922	8	7.28783e-05	13	0	1.758	1.19408e-05	11310.3
2	1	0	1	0	1	143.678	0.386869	0.386427	0.028352	8	0.000134638	13	0	3.6557	1.0956e-05	13629.6
2	1	0	1	0	1	145.576	0.405848	0.405429	0.0368693	8	0.000192509	13	0	5.5534	1.49479e-05	10996.4
2	1	0	1	0	1	147.474	0.424825	0.424398	0.0211423	8	0.000246506	13	0	7.4512	8.97277e-06	20073.4
2	1	0	1	0	1	149.372	0.443803	0.443328	0.0266714	8	0.000297442	13	0	9.349	1.18242e-05	16621.8
2	0	0	1	0	1	151.275	0.437161	0.436691	-0.0205935	8	0.000285859	13	0	1.2585	-8.99299e-06	21205.3
2	0	0	1	0	1	153.173	0.418183	0.417702	-0.0345334	8	0.000237657	13	0	3.1563	-1.44247e-05	12095.6
2	0	0	1	0	1	155.071	0.399206	0.398728	-0.023708	8	0.000184192	13	0	5.0541	-9.45306e-06	16818.3
2	0	0	1	0	1	156.968	0.380228	0.379766	-0.0331051	8	0.000124969	13	0	6.9518	-1.25722e-05	11471.5
2	0	0	1	0	1	158.866	0.361251	0.360738	-0.0439369	8	5.8978e-05	13	0	8.8495	-1.58497e-05	8210.36
2	1	0	1	0	0	160.73	0.357405	0.356944	0.0272195	9	3.89834e-05	13	0	0.6442	9.71583e-06	13113.5
2	1	0	1	0	0	162.628	0.376383	0.375916	0.0412437	9	0.000102433	13	0	2.542	1.55042e-05	9114.5
2	1	0	1	0	0	164.526	0.39536	0.394921	0.0287771	9	0.000162495	13	0	4.4397	1.13647e-05	13723.5
2	1	0	1	0	0	166.424	0.414338	0.413871	0.023021	9	0.000218418	13	0	6.3374	9.52773e-06	17978
2	1	0	1	0	0	168.321	0.433315	0.432882	0.0343897	9	0.000271027	13	0	8.2352	1.48867e-05	12587.6
2	0	0	1	0	0	170.21	0.447798	0.447312	-0.0213114	9	0.000310834	12	0	0.1948	-9.53284e-06	20989.4
2	0	0	1	0	0	172.123	0.428671	0.428209	-0.0246062	9	0.000266152	13	0	2.1075	-1.05366e-05	17402.5
2	0	0	1	0	0	174.02	0.409693	0.409224	-0.0238039	9	0.000215616	13	0	4.0053	-9.74112e-06	17191.5
2	0	0	1	0	0	175.918	0.390716	0.390255	-0.0386283	9	0.000159683	13	0	5.9031	-1.50749e-05	10102.8
2	0	0	1	0	0	177.816	0.371738	0.371264	-0.0257083	9	9.76018e-05	13	0	7.8008	-9.54457e-06	14441.4
2	0	0	1	0	0	179.714	0.352761	0.352292	-0.0446758	9	2.84142e-05	13	0	9.6985	-1.57389e-05	7885.53
2	1	0	1	0	1	181.578	0.365895	0.365433	0.0244507	10	6.88733e-05	13	0	1.4932	8.93511e-06	14945.7
2	1	0	1	0	1	183.476	0.384873	0.38441	0.0394007	10	0.00013103	13	0	3.391	1.5146e-05	9756.44
2	1	0	1	0	1	185.374	0.40385	0.403472	0.0237852	10	0.000189278	13	0	5.2887	9.59667e-06	16963.2
2	1	0	1	0	1	187.271	0.422828	0.422357	0.032707	10	0.000243547	13	0	7.1864	1.3814e-05	12913.4
2	1	0	1	0	1	189.169	0.441805	0.441339	0.0235017	10	0.000294735	13	0	9.0842	1.03722e-05	18779
2	0	0	1	0	1	191.077	0.439108	0.438551	-0.0183719	10	0.000292787	13	0	0.9988	-8.05702e-06	23870.8
2	0	0	1	0	1	192.975	0.420131	0.419627	-0.0317407	10	0.000245281	13	0	2.8966	-1.33193e-05	13220.5
2	0	0	1	0	1	194.873	0.401153	0.400723	-0.0254387	10	0.00019243	13	0	4.7944	-1.01939e-05	15752.5
2	0	0	1	0	1	196.771	0.382177	0.381745	-0.0356771	10	0.000133912	13	0	6.6921	-1.36196e-05	10700
2	0	0	1	0	1	198.668	0.363198	0.362704	-0.0343678	10	6.87326e-05	13	0	8.5898	-1.24654e-05	10553.6
2	0	0	1	0	1	199.986	0.349989	0.349572	-0.0409005	10	1.93708e-05	13	0	9.9073	-1.42977e-05	8546.89