Folder: SI_for_publications/ACS_Catal_2026/Figures_Na_K/main_figures/data/EC/20251112_2-148_alpha_reproducibility (part 3)

File: 20251112_2-148_001_alpha_reproducibility_1_K2_02_PEIS_C01.mpt
EC-Lab ASCII FILE
Nb header lines : 63

Potentio Electrochemical Impedance Spectroscopy

Run on channel : 1 (SN 69187)
User :
CE vs. WE compliance from -10 V to 10 V
Electrode connection : standard
Potential control : Ewe
Ewe ctrl range : min = -1.00 V, max = 1.00 V
Safety Limits :
	Do not start on E overload
Acquisition started on : 11/12/2025 14:40:36.984
Loaded Setting File :  C:\Users\User\Documents\EC-Lab\Data\Yatsuzuka\20251030_2-147_gamma_reproducibility\20251030_2-147_001_gamma1_K_1.mps
Saved on :
	File : 20251112_2-148_001_alpha_reproducibility_1_K2_02_PEIS_C01.mpr
	Directory : C:\Users\User\Documents\EC-Lab\Data\Yatsuzuka\20251112_2-148_alpha_reproducibility\
	Host : 192.109.209.127
Device : SP-150e (SN .003883)
Address : 192.109.209.128
EC-LAB for windows v11.52 (software)
Internet server v11.52 (firmware)
Command interpretor v11.50 (firmware)
Electrode material :
Initial state :
Electrolyte :
Comments :
Electrode surface area : 0.001 cm2
Characteristic mass : 0.001 g
Equivalent Weight : 0.000 g/eq.
Density : 0.000 g/cm3
Volume (V) : 0.001 cm3
Cycle Definition : Charge/Discharge alternance
Mode                Single sine
E (V)               0.4500
vs.                 Ref
tE (h:m:s)          0:00:0.0000
record              0
dI                  0.000
unit dI             mA
dt (s)              0.000
fi                  500.000
unit fi             kHz
ff                  1.000
unit ff             Hz
Nd                  6
Points              per decade
spacing             Logarithmic
Va (mV)             10.0
pw                  0.10
Na                  2
corr                0
E range min (V)     -1.000
E range max (V)     1.000
I Range             Auto
Bandwidth           5
nc cycles           0
goto Ns'            0
nr cycles           0
inc. cycle          0

freq/Hz	Re(Z)/Ohm	-Im(Z)/Ohm	|Z|/Ohm	Phase(Z)/deg	time/s	<Ewe>/V	<I>/mA	Cs/uF	Cp/uF	cycle number	I Range	|Ewe|/V	|I|/A	Ns	(Q-Qo)/mA.h	Re(Y)/Ohm-1	Im(Y)/Ohm-1	|Y|/Ohm-1	Phase(Y)/deg	Re(C)/nF	Im(C)/nF	|C|/nF	Phase(C)/deg	Re(M)	Im(M)	|M|	Phase(M)/deg	Re(Permittivity)	Im(Permittivity)	|Permittivity|	Phase(Permittivity)/deg	Re(Resistivity)/Ohm.cm	Im(Resistivity)/Ohm.cm	|Resistivity|/Ohm.cm	Phase(Resistivity)/deg	Re(Conductivity)/mS/cm	Im(Conductivity)/mS/cm	|Conductivity|/mS/cm	Phase(Conductivity)/deg	Tan(Delta)	Loss Angle(Delta)/deg	dq/mA.h	Pwe/W	Rwe/Ohm
500019	13.5137	-2.63891	13.769	11.0494	202.082	0.450155	0.00917321	-0.120617	-0.00443051	1	10	0.00468369	0.000340162	0	2.06042e-05	0.0712806	-0.0139194	0.072627	-11.0494	-4.43052	22.6885	23.117	-101.049	0.0000000E+000	0.0000000E+000	0.0000000E+000	101.049	0.0000000E+000	0.0000000E+000	0.0000000E+000	-101.049	0.0000000E+000	0.0000000E+000	0.0000000E+000	11.0494	0.0000000E+000	0.0000000E+000	0.0000000E+000	-11.0494	5.12096	78.9506	2.06042e-05	4.12936e-06	49072.8
231063	7.68858	-0.78245	7.72829	5.81086	202.926	0.449847	0.0131573	-0.880307	-0.00902361	1	10	0.0101828	0.00131761	0	2.6699e-05	0.12873	-0.0131006	0.129395	-5.81086	-9.02361	88.6686	89.1266	-95.8109	0.0000000E+000	0.0000000E+000	0.0000000E+000	95.8109	0.0000000E+000	0.0000000E+000	0.0000000E+000	-95.8109	0.0000000E+000	0.0000000E+000	0.0000000E+000	5.81086	0.0000000E+000	0.0000000E+000	0.0000000E+000	-5.81086	9.82629	84.1891	3.66781e-06	5.91876e-06	34190
106786	7.04518	-0.112066	7.04607	0.911316	203.771	0.449771	0.0107777	-13.2993	-0.00336423	1	10	0.0109849	0.00155901	0	3.4365e-05	0.141905	-0.00225726	0.141923	-0.911316	-3.36423	211.496	211.523	-90.9113	0.0000000E+000	0.0000000E+000	0.0000000E+000	90.9113	0.0000000E+000	0.0000000E+000	0.0000000E+000	-90.9113	0.0000000E+000	0.0000000E+000	0.0000000E+000	0.911316	0.0000000E+000	0.0000000E+000	0.0000000E+000	-0.911316	62.8662	89.0887	3.26817e-06	4.84748e-06	41731.8
49352.4	7.02609	0.0187209	7.02612	-0.152663	204.615	0.449755	0.012261	172.26	0.00122295	1	10	0.0106174	0.00151113	0	3.56599e-05	0.142326	0.000379224	0.142326	0.152663	1.22296	458.982	458.983	-89.8473	0.0000000E+000	0.0000000E+000	0.0000000E+000	89.8473	0.0000000E+000	0.0000000E+000	0.0000000E+000	-89.8473	0.0000000E+000	0.0000000E+000	0.0000000E+000	-0.152663	0.0000000E+000	0.0000000E+000	0.0000000E+000	0.152663	375.307	89.8473	7.00937e-07	5.51443e-06	36681.9
22806.6	7.05336	0.0477857	7.05352	-0.388166	205.459	0.449762	0.0120299	146.037	0.00670264	1	10	0.0104869	0.00148676	0	3.89767e-05	0.14177	0.000960473	0.141773	0.388166	6.70268	989.337	989.36	-89.6118	0.0000000E+000	0.0000000E+000	0.0000000E+000	89.6118	0.0000000E+000	0.0000000E+000	0.0000000E+000	-89.6118	0.0000000E+000	0.0000000E+000	0.0000000E+000	-0.388166	0.0000000E+000	0.0000000E+000	0.0000000E+000	0.388166	147.604	89.6118	-6.11827e-07	5.41059e-06	37387
10540.4	7.07933	0.0590886	7.07958	-0.478216	206.303	0.449755	0.00983662	255.541	0.0178013	1	10	0.0102912	0.00145364	0	3.99958e-05	0.141246	0.00117893	0.141251	0.478216	17.8014	2132.76	2132.83	-89.5218	0.0000000E+000	0.0000000E+000	0.0000000E+000	89.5218	0.0000000E+000	0.0000000E+000	0.0000000E+000	-89.5218	0.0000000E+000	0.0000000E+000	0.0000000E+000	-0.478216	0.0000000E+000	0.0000000E+000	0.0000000E+000	0.478216	119.809	89.5218	1.21974e-06	4.42408e-06	45722.6
4871.56	7.09806	0.0590454	7.09831	-0.476605	207.517	0.449764	0.0123616	553.307	0.038285	1	10	0.010097	0.00142246	0	4.125e-05	0.140874	0.00117186	0.140879	0.476605	38.2852	4602.38	4602.54	-89.5234	0.0000000E+000	0.0000000E+000	0.0000000E+000	89.5234	0.0000000E+000	0.0000000E+000	0.0000000E+000	-89.5234	0.0000000E+000	0.0000000E+000	0.0000000E+000	-0.476605	0.0000000E+000	0.0000000E+000	0.0000000E+000	0.476605	120.214	89.5234	1.00873e-06	5.55979e-06	36384
2250.72	7.12163	0.074226	7.12202	-0.59715	208.447	0.449758	0.0105913	952.671	0.103478	1	10	0.0108546	0.0015241	0	4.43581e-05	0.140402	0.00146336	0.14041	0.59715	103.479	9928.23	9928.77	-89.4028	0.0000000E+000	0.0000000E+000	0.0000000E+000	89.4028	0.0000000E+000	0.0000000E+000	0.0000000E+000	-89.4028	0.0000000E+000	0.0000000E+000	0.0000000E+000	-0.59715	0.0000000E+000	0.0000000E+000	0.0000000E+000	0.59715	95.9453	89.4028	2.7793e-06	4.76353e-06	42464.8
1040.33	7.13178	0.115537	7.13271	-0.928128	209.599	0.449757	0.0109901	1324.12	0.347424	1	10	0.0100622	0.00141071	0	4.71454e-05	0.140181	0.00227097	0.140199	0.928128	347.425	21445.5	21448.3	-89.0719	0.0000000E+000	0.0000000E+000	0.0000000E+000	89.0719	0.0000000E+000	0.0000000E+000	0.0000000E+000	-89.0719	0.0000000E+000	0.0000000E+000	0.0000000E+000	-0.928128	0.0000000E+000	0.0000000E+000	0.0000000E+000	0.928128	61.7272	89.0719	2.05784e-07	4.94288e-06	40923.9
480.769	7.1405	0.218869	7.14385	-1.75567	210.529	0.449761	0.00990557	1512.51	1.41972	1	10	0.0100927	0.00141278	0	5.10169e-05	0.139915	0.00428863	0.13998	1.75567	1419.72	46317.7	46339.5	-88.2443	0.0000000E+000	0.0000000E+000	0.0000000E+000	88.2443	0.0000000E+000	0.0000000E+000	0.0000000E+000	-88.2443	0.0000000E+000	0.0000000E+000	0.0000000E+000	-1.75567	0.0000000E+000	0.0000000E+000	0.0000000E+000	1.75567	32.6246	88.2443	1.93411e-06	4.45514e-06	45404.8
222.061	7.17344	0.440868	7.18698	-3.51688	211.453	0.44976	0.0103025	1625.7	6.11737	1	10	0.0101223	0.00140843	0	5.38869e-05	0.138879	0.00853525	0.139141	3.51688	6117.37	99536.7	99724.5	-86.4831	0.0000000E+000	0.0000000E+000	0.0000000E+000	86.4831	0.0000000E+000	0.0000000E+000	0.0000000E+000	-86.4831	0.0000000E+000	0.0000000E+000	0.0000000E+000	-3.51688	0.0000000E+000	0.0000000E+000	0.0000000E+000	3.51688	16.2712	86.4831	1.52729e-06	4.63365e-06	43655.5
102.667	7.21204	0.906658	7.26881	-7.16532	212.39	0.449757	0.00968009	1709.8	26.6014	1	10	0.0101228	0.00139264	0	5.4957e-05	0.1365	0.01716	0.137574	7.16532	26601.4	211602	213267	-82.8347	0.0000000E+000	0.0000000E+000	0.0000000E+000	82.8347	0.0000000E+000	0.0000000E+000	0.0000000E+000	-82.8347	0.0000000E+000	0.0000000E+000	0.0000000E+000	-7.16532	0.0000000E+000	0.0000000E+000	0.0000000E+000	7.16532	7.95453	82.8347	1.23398e-07	4.35369e-06	46462.1
47.4443	7.30436	1.85954	7.53734	-14.2829	213.301	0.449757	0.0101665	1803.97	109.801	1	10	0.0101334	0.00134443	0	5.5336e-05	0.128572	0.0327317	0.132673	14.2829	109801	431302	445059	-75.7171	0.0000000E+000	0.0000000E+000	0.0000000E+000	75.7171	0.0000000E+000	0.0000000E+000	0.0000000E+000	-75.7171	0.0000000E+000	0.0000000E+000	0.0000000E+000	-14.2829	0.0000000E+000	0.0000000E+000	0.0000000E+000	14.2829	3.92804	75.7171	-1.93991e-07	4.57243e-06	44239.3
21.9144	7.45595	3.8383	8.38593	-27.2393	214.169	0.449737	0.00889558	1892.13	396.394	1	10	0.0101588	0.00121142	0	5.49359e-05	0.106023	0.0545804	0.119247	27.2393	396394	770000	866042	-62.7607	0.0000000E+000	0.0000000E+000	0.0000000E+000	62.7607	0.0000000E+000	0.0000000E+000	0.0000000E+000	-62.7607	0.0000000E+000	0.0000000E+000	0.0000000E+000	-27.2393	0.0000000E+000	0.0000000E+000	0.0000000E+000	27.2393	1.94251	62.7607	-2.27542e-06	4.00067e-06	50557.4
10.1329	7.73494	7.91759	11.0688	-45.6686	215.096	0.449755	0.00956083	1983.77	1015.03	1	10	0.0101695	0.000918755	0	5.78179e-05	0.0631334	0.0646242	0.0903444	45.6686	1.01503e+06	991616	1.41901e+06	-44.3314	0.0000000E+000	0.0000000E+000	0.0000000E+000	44.3314	0.0000000E+000	0.0000000E+000	0.0000000E+000	-44.3314	0.0000000E+000	0.0000000E+000	0.0000000E+000	-45.6686	0.0000000E+000	0.0000000E+000	0.0000000E+000	45.6686	0.976931	44.3315	2.73126e-06	4.30003e-06	47041.5
4.68375	8.16395	16.7776	18.6585	-64.0526	216.146	0.449761	0.00185283	2025.33	1637.59	1	11	0.010184	0.000545809	0	5.08158e-05	0.0234503	0.0481923	0.0535949	64.0526	1.63759e+06	796845	1.82117e+06	-25.9474	0.0000000E+000	0.0000000E+000	0.0000000E+000	25.9474	0.0000000E+000	0.0000000E+000	0.0000000E+000	-25.9474	0.0000000E+000	0.0000000E+000	0.0000000E+000	-64.0526	0.0000000E+000	0.0000000E+000	0.0000000E+000	64.0526	0.486597	25.9474	-6.35737e-06	8.33331e-07	242743
2.16533	9.0451	35.5043	36.6383	-75.7073	217.859	0.449768	0.000966642	2070.22	1944.04	1	11	0.0101755	0.000277728	0	6.08816e-05	0.00673817	0.026449	0.0272938	75.7073	1.94404e+06	495266	2.00614e+06	-14.2927	0.0000000E+000	0.0000000E+000	0.0000000E+000	14.2927	0.0000000E+000	0.0000000E+000	0.0000000E+000	-14.2927	0.0000000E+000	0.0000000E+000	0.0000000E+000	-75.7073	0.0000000E+000	0.0000000E+000	0.0000000E+000	75.7073	0.254761	14.2927	3.97487e-06	4.34765e-07	465289
1.00006	10.9264	75.1134	75.9039	-81.7235	222.199	0.449772	0.000397654	2118.73	2074.82	1	12	0.0101781	0.000134091	0	5.31711e-05	0.00189647	0.0130373	0.0131745	81.7235	2.07482e+06	301814	2.09666e+06	-8.27647	0.0000000E+000	0.0000000E+000	0.0000000E+000	8.27647	0.0000000E+000	0.0000000E+000	0.0000000E+000	-8.27647	0.0000000E+000	0.0000000E+000	0.0000000E+000	-81.7235	0.0000000E+000	0.0000000E+000	0.0000000E+000	81.7235	0.145465	8.27647	-4.16117e-06	1.78854e-07	1.13106e+06

File: 20251112_2-148_001_alpha_reproducibility_1_K2_03_CVA_C01.mpt
EC-Lab ASCII FILE
Nb header lines : 66

Cyclic Voltammetry Advanced

Run on channel : 1 (SN 69187)
User :
CE vs. WE compliance from -10 V to 10 V
Electrode connection : standard
Potential control : Ewe
Ewe ctrl range : min = -1.00 V, max = 1.00 V
Safety Limits :
	Do not start on E overload
Acquisition started on : 11/12/2025 14:40:36.984
Loaded Setting File :  C:\Users\User\Documents\EC-Lab\Data\Yatsuzuka\20251030_2-147_gamma_reproducibility\20251030_2-147_001_gamma1_K_1.mps
Saved on :
	File : 20251112_2-148_001_alpha_reproducibility_1_K2_03_CVA_C01.mpr
	Directory : C:\Users\User\Documents\EC-Lab\Data\Yatsuzuka\20251112_2-148_alpha_reproducibility\
	Host : 192.109.209.127
Device : SP-150e (SN .003883)
Address : 192.109.209.128
EC-LAB for windows v11.52 (software)
Internet server v11.52 (firmware)
Command interpretor v11.50 (firmware)
Electrode material :
Initial state :
Electrolyte :
Comments :
Electrode surface area : 0.001 cm2
Characteristic mass : 0.001 g
Equivalent Weight : 0.000 g/eq.
Density : 0.000 g/cm3
Volume (V) : 0.001 cm3
Cycle Definition : Charge/Discharge alternance
Ei (V)              0.450
vs.                 Ref
ti (h:m:s)          0:00:10.0000
dti (s)             0.0000
dE/dt               5.000
dE/dt unit          mV/s
E1 (V)              0.700
vs.                 Ref
t1 (h:m:s)          0:00:0.0000
dt1 (s)             0.1000
Step percent        50
N                   10
E range min (V)     -1.000
E range max (V)     1.000
I Range             10 mA
I Range min         Unset
I Range max         Unset
I Range init        Unset
Bandwidth           5
E2 (V)              0.450
vs.                 Ref
t2 (h:m:s)          0:00:0.0000
dt2 (s)             0.1000
nc cycles           14
nr                  1
Reverse Scan        0
Ef (V)              0.000
vs.                 Eoc
tf (h:m:s)          0:00:0.0000
dtf (s)             0.1000

mode	ox/red	error	control changes	Ns changes	counter inc.	time/s	control/V	Ewe/V	<I>/mA	cycle number	(Q-Qo)/C	I Range	Ns	step time/s	Pwe/W	Rwe/Ohm
2	0	0	0	0	0	232.318	0.449961	0.449697	-0.0061051	1	0.0000000E+000	11	0	0.000000000000000E+000	-2.74544e-06	73659.3
2	1	0	1	0	0	246.254	0.519639	0.519435	0.0126468	1	0.000173864	11	0	13.8807	6.56916e-06	41072.6
2	1	0	0	0	0	260.235	0.589542	0.589306	0.0249041	1	0.000394511	11	0	27.8613	1.46761e-05	23663
2	1	0	1	0	0	274.215	0.659445	0.659208	0.404877	1	0.0021981	11	0	41.8419	0.000266898	1628.17
2	1	0	1	0	0	287.978	0.671728	0.671518	0.542315	1	0.0147036	11	0	55.6051	0.000364174	1238.24
2	1	0	0	0	0	301.959	0.601825	0.601592	0.0140642	1	0.0170409	11	0	69.5857	8.46091e-06	42774.6
2	0	0	1	0	0	315.94	0.531922	0.531703	-0.00891256	1	0.0170029	11	0	9.8863	-4.73884e-06	59657.8
2	0	0	0	0	0	329.92	0.462019	0.461778	-0.011627	1	0.0168584	11	0	23.8669	-5.36907e-06	39716.2
2	1	0	1	0	1	343.758	0.507206	0.506946	0.0113306	2	0.016961	11	0	11.3842	5.74401e-06	44741.3
2	1	0	1	0	1	357.739	0.57711	0.576851	0.0176595	2	0.0171439	11	0	25.3649	1.01869e-05	32665.2
2	1	0	1	0	1	371.719	0.647013	0.646794	0.235034	2	0.018182	11	0	39.3455	0.000152019	2751.91
2	1	0	1	0	1	385.473	0.684211	0.684044	0.857222	2	0.0296553	11	0	53.0986	0.000586378	797.977
2	1	0	1	0	1	399.453	0.614307	0.614108	0.0331448	2	0.0336949	11	0	67.0793	2.03545e-05	18528
2	0	0	1	0	1	413.434	0.544404	0.54419	-0.00830421	2	0.0337321	11	0	7.1901	-4.51907e-06	65531.9
2	0	0	1	0	1	427.414	0.474502	0.474246	-0.0109009	2	0.033594	11	0	21.1707	-5.16972e-06	43505.1
2	1	0	1	0	0	441.252	0.494724	0.494479	0.0113782	3	0.033639	11	0	8.8877	5.62628e-06	43458.6
2	1	0	1	0	0	455.233	0.564627	0.564477	0.0141148	3	0.0338097	11	0	22.8683	7.9675e-06	39991.8
2	1	0	1	0	0	469.214	0.63453	0.634319	0.133122	3	0.0344319	11	0	36.8489	8.4442e-05	4764.94
2	1	0	1	0	0	482.967	0.696693	0.696456	1.31028	3	0.0436355	11	0	50.6021	0.000912552	531.532
2	1	0	1	0	0	496.947	0.626791	0.626537	0.0652625	3	0.0501135	11	0	64.5827	4.08894e-05	9600.27
2	1	0	1	0	0	510.928	0.556888	0.556645	-0.00649907	3	0.050282	11	0	4.6935	-3.61767e-06	85650
2	0	0	1	0	0	524.909	0.486985	0.486761	-0.0106526	3	0.0501526	11	0	18.6741	-5.1853e-06	45693.9
2	1	0	0	0	1	538.747	0.482241	0.482038	0.011309	4	0.0501414	11	0	6.3912	5.45138e-06	42624.1
2	1	0	1	0	1	552.727	0.552144	0.551876	0.0130664	4	0.0503057	11	0	20.3718	7.21105e-06	42236.2
2	1	0	0	0	1	566.708	0.622047	0.621788	0.0752207	4	0.0507039	11	0	34.3524	4.67713e-05	8266.18
2	1	0	1	0	1	580.689	0.69195	0.691719	1.18391	4	0.0570069	11	0	48.333	0.000818932	584.268
2	1	0	1	0	1	594.442	0.639273	0.639036	0.122072	4	0.0660913	11	0	62.0862	7.80082e-05	5234.92
2	0	0	0	0	1	608.422	0.56937	0.569129	-0.0045325	4	0.0664966	11	0	2.7961	-2.57958e-06	125566
2	0	0	1	0	1	622.403	0.499467	0.499184	-0.0104779	4	0.0663792	11	0	16.7767	-5.23042e-06	47641.5
2	1	0	0	0	0	636.241	0.469758	0.469532	0.0114611	5	0.0663143	11	0	3.8946	5.38137e-06	40967.3
2	1	0	1	0	0	650.222	0.539662	0.539416	0.0123298	5	0.0664763	11	0	17.8753	6.6509e-06	43748.9
2	1	0	1	0	0	664.202	0.609565	0.609346	0.0444473	5	0.0667582	11	0	31.8559	2.70838e-05	13709.4
2	1	0	1	0	0	678.183	0.679468	0.679268	0.811764	5	0.0706894	11	0	45.8365	0.000551406	836.781
2	1	0	1	0	0	691.936	0.651756	0.651542	0.227229	5	0.0817811	11	0	59.5896	0.000148049	2867.34
2	0	0	1	0	0	705.917	0.581852	0.581605	-0.000875532	5	0.0826306	11	0	0.0999	-5.09214e-07	664287
2	0	0	1	0	0	719.897	0.51195	0.511729	-0.0098037	5	0.0825311	11	0	14.0805	-5.01683e-06	52197.5
2	1	0	1	0	1	733.735	0.457276	0.457022	0.0113592	6	0.0824124	11	0	1.3981	5.19139e-06	40233.8
2	1	0	1	0	1	747.716	0.527179	0.526951	0.0116459	6	0.0825726	11	0	15.3787	6.13679e-06	45247.9
2	1	0	1	0	1	761.696	0.597082	0.596832	0.0287786	6	0.0827935	11	0	29.3593	1.7176e-05	20738.8
2	1	0	1	0	1	775.677	0.666985	0.666746	0.522277	6	0.0851479	11	0	43.3399	0.000348226	1276.61
2	1	0	1	0	1	789.43	0.664239	0.663976	0.395906	6	0.0970828	11	0	57.0931	0.000262872	1677.11
2	0	0	1	0	1	803.411	0.594336	0.594111	0.00624394	6	0.0987062	11	0	71.0737	3.7096e-06	95150
2	1	0	1	0	1	817.391	0.524433	0.524215	-0.00887793	6	0.0986367	11	0	11.3842	-4.65395e-06	59046.9
2	0	0	1	0	1	831.372	0.45453	0.454275	-0.0117593	6	0.0984894	11	0	25.3648	-5.34193e-06	38631.3
2	1	0	0	0	0	845.21	0.514696	0.514484	0.0117445	7	0.0986258	11	0	12.8822	6.04237e-06	43806.2
2	1	0	1	0	0	859.191	0.584599	0.584342	0.0198329	7	0.0988157	11	0	26.8628	1.15892e-05	29463.2
2	1	0	0	0	0	873.171	0.654502	0.654259	0.312842	7	0.100184	11	0	40.8434	0.00020468	2091.34
2	1	0	1	0	0	886.924	0.676722	0.676532	0.615511	7	0.111803	11	0	54.5965	0.000416412	1099.14
2	1	0	1	0	0	900.905	0.606818	0.606625	0.0181571	7	0.114534	11	0	68.5772	1.10146e-05	33409.8
2	0	0	0	0	0	914.886	0.536915	0.536666	-0.00841779	7	0.114514	11	0	9.1873	-4.51754e-06	63753.8
2	0	0	1	0	0	928.866	0.467012	0.466801	-0.0106883	7	0.114374	11	0	23.1679	-4.9893e-06	43674.1
2	1	0	0	0	1	942.704	0.502213	0.501938	0.0110821	8	0.114453	11	0	10.3856	5.56254e-06	45292.6
2	1	0	1	0	1	956.685	0.572116	0.571898	0.0158612	8	0.114627	11	0	24.3662	9.07099e-06	36056.4
2	1	0	1	0	1	970.666	0.64202	0.641808	0.178175	8	0.115429	11	0	38.3469	0.000114354	3602.11
2	1	0	0	0	1	984.419	0.689204	0.688957	0.933106	8	0.12551	11	0	52.1	0.00064287	738.348
2	1	0	1	0	1	998.399	0.619301	0.619067	0.0407004	8	0.130006	11	0	66.0806	2.51962e-05	15210.4
2	1	0	1	0	1	1012.38	0.549397	0.549162	-0.00733776	8	0.130077	11	0	6.8905	-4.02962e-06	74840.6
[...]
2	0	0	1	0	1	1207.37	0.574363	0.574114	-0.00352654	10	0.160503	11	0	1.5978	-2.02463e-06	162798
2	0	0	0	0	1	1221.35	0.50446	0.504215	-0.00999472	10	0.160392	11	0	15.5784	-5.03949e-06	50448.1
2	1	0	1	0	0	1235.19	0.464765	0.464529	0.0111515	11	0.160305	11	0	2.896	5.18018e-06	41656.3
2	1	0	0	0	0	1249.17	0.534668	0.534431	0.0117486	11	0.160465	11	0	16.8766	6.2788e-06	45488.9
2	1	0	1	0	0	1263.15	0.604572	0.604354	0.0350828	11	0.160711	11	0	30.8573	2.12025e-05	17226.5
2	1	0	1	0	0	1277.13	0.674475	0.674243	0.64587	11	0.163751	11	0	44.8379	0.000435474	1043.93
2	1	0	0	0	0	1290.88	0.656749	0.656505	0.261524	11	0.17452	11	0	58.591	0.000171692	2510.3
2	0	0	1	0	0	1304.86	0.586846	0.586619	0.00101437	11	0.175533	11	0	72.5716	5.95049e-07	578308
2	0	0	1	0	0	1318.84	0.516942	0.516701	-0.0096698	11	0.175441	11	0	13.2816	-4.9964e-06	53434.6
2	1	0	1	0	1	1332.68	0.452283	0.452015	0.0102028	12	0.175302	11	0	0.3995	4.61184e-06	44302.9
2	1	0	1	0	1	1346.66	0.522186	0.521992	0.011308	12	0.17546	11	0	14.3801	5.90267e-06	46161.4
2	1	0	1	0	1	1360.64	0.592089	0.591879	0.0235192	12	0.175661	11	0	28.3607	1.39205e-05	25165.8
2	1	0	1	0	1	1374.62	0.661992	0.661727	0.402207	12	0.177453	11	0	42.3413	0.000266151	1645.24
2	1	0	1	0	1	1388.38	0.669231	0.668995	0.4323	12	0.188531	11	0	56.0945	0.000289206	1547.53
2	1	0	1	0	1	1402.36	0.599329	0.599075	0.00876241	12	0.190336	11	0	70.0751	5.24934e-06	68368.7
2	0	0	1	0	1	1416.34	0.529426	0.529238	-0.00885844	12	0.190278	11	0	11.1845	-4.68822e-06	59743.9
2	0	0	1	0	1	1430.32	0.459523	0.459309	-0.011544	12	0.190134	11	0	25.1651	-5.30226e-06	39787.7
2	1	0	1	0	0	1444.16	0.509702	0.50949	0.0111408	13	0.190245	11	0	11.8835	5.67613e-06	45731.8
2	1	0	0	0	0	1458.14	0.579606	0.579377	0.0175266	13	0.190424	11	0	25.8642	1.01545e-05	33057.1
2	1	0	1	0	0	1472.12	0.649509	0.649269	0.236097	13	0.191469	11	0	39.8448	0.000153291	2750
2	1	0	1	0	0	1485.87	0.681715	0.681505	0.681438	13	0.201853	11	0	53.5979	0.000464403	1000.1
2	1	0	1	0	0	1499.85	0.611812	0.611633	0.0234092	13	0.204944	11	0	67.5785	1.43178e-05	26127.9
2	0	0	1	0	0	1513.83	0.541908	0.541677	-0.00833761	13	0.204945	11	0	8.688	-4.51629e-06	64968
2	0	0	0	0	0	1527.81	0.472005	0.47181	-0.0107388	13	0.204807	11	0	22.6686	-5.06668e-06	43935.1
2	1	0	1	0	1	1541.65	0.49722	0.49697	0.0113234	14	0.204862	11	0	9.387	5.62739e-06	43888.8
2	1	0	0	0	1	1555.63	0.567123	0.566899	0.0142435	14	0.205029	11	0	23.3676	8.07461e-06	39800.6
2	1	0	1	0	1	1569.61	0.637026	0.636837	0.133805	14	0.205654	11	0	37.3482	8.52118e-05	4759.45
2	1	0	1	0	1	1583.36	0.694197	0.693944	1.02619	14	0.214179	11	0	51.1014	0.000712122	676.231
2	1	0	0	0	1	1597.35	0.624294	0.624074	0.0476141	14	0.219129	11	0	65.082	2.97147e-05	13106.9
2	0	0	1	0	1	1611.33	0.554391	0.554138	-0.00715761	14	0.219232	11	0	6.0915	-3.9663e-06	77419.5
2	1	0	1	0	1	1625.31	0.484487	0.484259	-0.0104983	14	0.219102	11	0	20.0722	-5.08392e-06	46127.1
2	1	0	1	0	0	1639.14	0.484738	0.484499	0.0111252	15	0.219101	11	0	6.8905	5.39014e-06	43549.8
2	1	0	1	0	0	1653.13	0.554641	0.554416	0.0127147	15	0.219264	11	0	20.8711	7.04921e-06	43604.5
2	1	0	1	0	0	1667.11	0.624544	0.624333	0.0760169	15	0.219664	11	0	34.8517	4.74599e-05	8213.08
2	1	0	1	0	0	1681.09	0.694447	0.694194	1.11654	15	0.225796	11	0	48.8323	0.000775096	621.737
2	1	0	1	0	0	1694.84	0.636777	0.636568	0.096672	15	0.233278	11	0	62.5855	6.15383e-05	6584.82
2	0	0	1	0	0	1708.82	0.566874	0.566689	-0.00507355	15	0.233578	11	0	3.3953	-2.87512e-06	111695
2	0	0	1	0	0	1722.8	0.496971	0.496722	-0.0100805	15	0.233459	11	0	17.3759	-5.0072e-06	49275.7
2	0	0	1	0	0	1732.19	0.450011	0.449792	-0.0157912	15	0.233357	11	0	26.765	-7.10276e-06	28483.8