Folder: SI_for_publications/ACS_Catal_2026/Figures_Na_K/main_figures/data/EC/20251112_2-148_alpha_reproducibility (part 36)

File: 20251112_2-148_006_gamma_reproducibility_2_Na2_01_CVA_C02.mpt
EC-Lab ASCII FILE
Nb header lines : 66

Cyclic Voltammetry Advanced

Run on channel : 2 (SN 69290)
User :
CE vs. WE compliance from -10 V to 10 V
Electrode connection : standard
Potential control : Ewe
Ewe ctrl range : min = -1.00 V, max = 1.00 V
Safety Limits :
	Do not start on E overload
Acquisition started on : 11/12/2025 21:00:04.183
Loaded Setting File :  C:\Users\User\Documents\EC-Lab\Data\Yatsuzuka\20251112_2-148_alpha_reproducibility\20251112_2-148_002_alpha_reproducibility_2_K1.mps
Saved on :
	File : 20251112_2-148_006_gamma_reproducibility_2_Na2_r_01_CVA_C02.mpr
	Directory : C:\Users\User\Documents\EC-Lab\Data\Yatsuzuka\20251112_2-148_alpha_reproducibility\
	Host : 192.109.209.127
Device : SP-150e (SN .003883)
Address : 192.109.209.128
EC-Lab for windows v11.52 (software)
Internet server v11.52 (firmware)
Command interpretor v11.50 (firmware)
Electrode material :
Initial state :
Electrolyte :
Comments :
Electrode surface area : 0.001 cm2
Characteristic mass : 0.001 g
Equivalent Weight : 0.000 g/eq.
Density : 0.000 g/cm3
Volume (V) : 0.001 cm3
Cycle Definition : Charge/Discharge alternance
Ei (V)              0.350
vs.                 Ref
ti (h:m:s)          0:00:10.0000
dti (s)             0.0000
dE/dt               10.000
dE/dt unit          mV/s
E1 (V)              0.450
vs.                 Ref
t1 (h:m:s)          0:00:0.0000
dt1 (s)             0.1000
Step percent        50
N                   10
E range min (V)     -1.000
E range max (V)     1.000
I Range             Auto
I Range min         Unset
I Range max         Unset
I Range init        Unset
Bandwidth           5
E2 (V)              0.350
vs.                 Ref
t2 (h:m:s)          0:00:0.0000
dt2 (s)             0.1000
nc cycles           9
nr                  1
Reverse Scan        0
Ef (V)              0.000
vs.                 Eoc
tf (h:m:s)          0:00:0.0000
dtf (s)             0.1000

mode	ox/red	error	control changes	Ns changes	counter inc.	time/s	control/V	Ewe/V	<I>/mA	cycle number	(Q-Qo)/C	I Range	Ns	step time/s	P/W
2	1	0	1	0	0	0.000000000000000E+000	0.349989	0.349591	9.90018e-06	1	0.0000000E+000	13	0	0.000000000000000E+000	3.46101e-09
2	1	0	1	0	0	1.7755	0.367743	0.367292	0.0044896	1	8.10309e-06	13	0	1.748	1.64899e-06
2	1	0	1	0	0	3.5733	0.385722	0.385341	0.00301627	1	1.61448e-05	13	0	3.5458	1.16229e-06
2	1	0	1	0	0	5.3712	0.403699	0.403257	0.0050459	1	2.38791e-05	13	0	5.3437	2.03479e-06
2	1	0	1	0	0	7.1691	0.421679	0.421219	0.0054786	1	3.128e-05	13	0	7.1416	2.30769e-06
2	0	0	1	0	0	8.9669	0.439658	0.439233	0.00345516	1	3.836e-05	13	0	8.9394	1.51762e-06
2	1	0	1	0	0	10.6757	0.443253	0.442814	-0.00308016	1	4.08775e-05	13	0	0.6493	-1.36394e-06
2	0	0	1	0	0	12.4735	0.425275	0.424782	-0.00161317	1	3.60335e-05	13	0	2.4471	-6.85245e-07
2	1	0	1	0	0	14.2714	0.407296	0.40688	-0.0046329	1	3.0453e-05	13	0	4.245	-1.88504e-06
2	1	0	1	0	0	16.0693	0.389317	0.38884	-0.00341283	1	2.42704e-05	13	0	6.0429	-1.32705e-06
2	0	0	1	0	0	17.8671	0.371339	0.370857	-0.00209299	1	1.75176e-05	13	0	7.8407	-7.76202e-07
2	0	0	1	0	0	19.665	0.35336	0.352953	-0.00607319	1	1.01048e-05	13	0	9.6386	-2.14355e-06
2	1	0	1	0	1	21.3296	0.363298	0.362896	0.00337335	2	1.37371e-05	13	0	1.2985	1.22418e-06
2	1	0	1	0	1	23.1275	0.381277	0.380892	0.00259939	2	2.09571e-05	13	0	3.0964	9.90085e-07
2	1	0	1	0	1	24.9253	0.399256	0.398851	0.0042898	2	2.79593e-05	13	0	4.8942	1.71099e-06
2	1	0	1	0	1	26.7232	0.417233	0.416791	0.00525095	2	3.46777e-05	13	0	6.6921	2.18855e-06
2	0	0	1	0	1	28.5211	0.435213	0.434749	0.00356825	2	4.11595e-05	13	0	8.49	1.55129e-06
2	1	0	1	0	1	30.2248	0.447748	0.447303	-0.00260919	2	4.58837e-05	13	0	0.2272	-1.1671e-06
2	1	0	1	0	1	32.0227	0.429769	0.429266	-0.00138038	2	4.10578e-05	13	0	2.0251	-5.92552e-07
2	0	0	1	0	1	33.8205	0.411791	0.411334	-0.00450732	2	3.55123e-05	13	0	3.8229	-1.85402e-06
2	0	0	1	0	1	35.6184	0.393812	0.393365	-0.00287997	2	2.94334e-05	13	0	5.6208	-1.13288e-06
2	0	0	1	0	1	37.4163	0.375833	0.375343	-0.00370736	2	2.28272e-05	13	0	7.4187	-1.39153e-06
2	0	0	1	0	1	39.2141	0.357855	0.357419	-0.00634478	2	1.56013e-05	13	0	9.2165	-2.26774e-06
2	1	0	1	0	0	40.8787	0.358804	0.358381	0.00215296	3	1.54243e-05	13	0	0.8765	7.71581e-07
2	1	0	1	0	0	42.6766	0.376782	0.376359	0.00405856	3	2.24803e-05	13	0	2.6744	1.52747e-06
2	0	0	1	0	0	44.4745	0.394761	0.394363	0.00519962	3	2.93488e-05	13	0	4.4723	2.05054e-06
2	0	0	1	0	0	46.2723	0.41274	0.41226	0.00276258	3	3.59439e-05	13	0	6.2701	1.1389e-06
2	1	0	1	0	0	48.0702	0.430717	0.430294	0.00240535	3	4.22953e-05	13	0	8.068	1.03501e-06
2	1	0	1	0	0	49.8681	0.448697	0.448253	0.00450289	3	4.84418e-05	13	0	9.8659	2.01843e-06
2	0	0	1	0	0	51.5718	0.434264	0.433821	-0.00438048	3	4.48401e-05	13	0	1.5482	-1.90034e-06
2	0	0	1	0	0	53.3697	0.416285	0.415815	-0.00259554	3	3.94195e-05	13	0	3.3461	-1.07927e-06
2	0	0	1	0	0	55.1675	0.398307	0.397839	-0.00310012	3	3.34863e-05	13	0	5.1439	-1.23335e-06
2	0	0	1	0	0	56.9654	0.380328	0.379893	-0.00573905	3	2.7029e-05	13	0	6.9418	-2.18022e-06
2	0	0	1	0	0	58.7633	0.362349	0.361858	-0.0036002	3	1.99841e-05	13	0	8.7397	-1.30276e-06
2	1	0	1	0	1	60.4279	0.354309	0.35389	0.00325464	4	1.62235e-05	13	0	0.3996	1.15179e-06
2	1	0	1	0	1	62.2257	0.372288	0.371815	0.00519856	4	2.31532e-05	13	0	2.1974	1.9329e-06
2	0	0	1	0	1	64.0236	0.390266	0.389834	0.00384545	4	3.00114e-05	13	0	3.9953	1.49909e-06
2	1	0	1	0	1	65.8215	0.408245	0.407757	0.00200572	4	3.65758e-05	13	0	5.7932	8.17848e-07
2	1	0	1	0	1	67.6193	0.426224	0.425806	0.00289945	4	4.28973e-05	13	0	7.591	1.2346e-06
2	1	0	1	0	1	69.4173	0.444202	0.443786	0.00465955	4	4.90152e-05	13	0	9.389	2.06784e-06
2	0	0	1	0	1	71.1209	0.438759	0.438268	-0.00366238	4	4.81657e-05	13	0	1.0987	-1.60511e-06
2	0	0	1	0	1	72.9188	0.42078	0.420304	-0.00428488	4	4.29019e-05	13	0	2.8966	-1.80096e-06
2	1	0	1	0	1	74.7167	0.402801	0.402358	-0.00270463	4	3.71243e-05	13	0	4.6945	-1.08823e-06
2	0	0	1	0	1	76.5145	0.384823	0.384374	-0.00189386	4	3.08139e-05	13	0	6.4923	-7.27951e-07
2	0	0	1	0	1	78.3124	0.366844	0.366409	-0.00494463	4	2.39445e-05	13	0	8.2902	-1.81176e-06
2	1	0	1	0	0	79.9994	0.350039	0.349553	0.00199453	5	1.69755e-05	13	0	0.005	6.97194e-07
2	1	0	1	0	0	81.7749	0.367793	0.367378	0.00236646	5	2.35356e-05	13	0	1.7805	8.69386e-07
2	1	0	1	0	0	83.5727	0.385772	0.385384	0.00442094	5	3.03387e-05	13	0	3.5783	1.70376e-06
2	1	0	1	0	0	85.3706	0.40375	0.403364	0.00285924	5	3.6914e-05	13	0	5.3762	1.15332e-06
2	1	0	1	0	0	87.1685	0.421729	0.421282	0.00247664	5	4.32079e-05	13	0	7.1741	1.04336e-06
2	1	0	1	0	0	88.9663	0.439708	0.439305	0.00463039	5	4.92853e-05	13	0	8.9719	2.03415e-06
2	0	0	1	0	0	90.6701	0.443253	0.442815	-0.00391738	5	5.11139e-05	13	0	0.6493	-1.73468e-06
2	0	0	1	0	0	92.4679	0.425275	0.424816	-0.00295027	5	4.60083e-05	13	0	2.4471	-1.25332e-06
2	0	0	1	0	0	94.2658	0.407296	0.406888	-0.00187888	5	4.03463e-05	13	0	4.245	-7.64494e-07
2	0	0	1	0	0	96.0637	0.389317	0.388848	-0.00536594	5	3.42053e-05	13	0	6.0429	-2.08653e-06
2	0	0	1	0	0	97.8615	0.371339	0.370878	-0.00288397	5	2.75241e-05	13	0	7.8407	-1.0696e-06
2	0	0	1	0	0	99.6594	0.35336	0.352923	-0.00514321	5	2.02192e-05	13	0	9.6386	-1.81516e-06
2	1	0	1	0	1	101.324	0.363298	0.362866	0.0023276	6	2.35796e-05	13	0	1.2985	8.44607e-07
2	0	0	1	0	1	103.122	0.381277	0.380833	0.00503702	6	3.03633e-05	13	0	3.0964	1.91826e-06
2	1	0	1	0	1	104.92	0.399256	0.39888	0.00336203	6	3.693e-05	13	0	4.8942	1.34105e-06
[...]
2	1	0	1	0	0	129.862	0.448697	0.448289	0.00461911	7	5.52153e-05	13	0	9.8384	2.07069e-06
2	0	0	1	0	0	131.566	0.434264	0.43379	-0.00405684	7	5.15806e-05	13	0	1.5482	-1.75982e-06
2	0	0	1	0	0	133.364	0.416285	0.415827	-0.00234897	7	4.62155e-05	13	0	3.3461	-9.76763e-07
2	0	0	1	0	0	135.162	0.398307	0.397878	-0.00471587	7	4.03512e-05	13	0	5.1439	-1.87634e-06
2	0	0	1	0	0	136.96	0.380328	0.379864	-0.00236751	7	3.39781e-05	13	0	6.9418	-8.99334e-07
2	1	0	1	0	0	138.758	0.362349	0.361873	-0.00505837	7	2.70318e-05	13	0	8.7397	-1.83049e-06
2	1	0	1	0	1	140.422	0.354309	0.35392	0.00281296	8	2.33137e-05	13	0	0.4271	9.95564e-07
2	0	0	1	0	1	142.22	0.372288	0.371826	0.00323854	8	3.0041e-05	13	0	2.2249	1.20417e-06
2	1	0	1	0	1	144.018	0.390266	0.389867	0.00204546	8	3.66714e-05	13	0	4.0228	7.97455e-07
2	1	0	1	0	1	145.816	0.408245	0.407816	0.0040273	8	4.30675e-05	13	0	5.8207	1.6424e-06
2	1	0	1	0	1	147.614	0.426224	0.425774	0.00293026	8	4.91971e-05	13	0	7.6185	1.24763e-06
2	1	0	1	0	1	149.412	0.444202	0.443745	0.00400562	8	5.50977e-05	13	0	9.4165	1.77747e-06
2	0	0	1	0	1	151.115	0.438759	0.438279	-0.00316422	8	5.41819e-05	13	0	1.0987	-1.38681e-06
2	0	0	1	0	1	152.913	0.42078	0.420288	-0.00469871	8	4.89468e-05	13	0	2.8966	-1.97481e-06
2	0	0	1	0	1	154.711	0.402801	0.402356	-0.00266197	8	4.32104e-05	13	0	4.6945	-1.07106e-06
2	0	0	1	0	1	156.509	0.384823	0.384372	-0.00298477	8	3.6996e-05	13	0	6.4923	-1.14726e-06
2	0	0	1	0	1	158.307	0.366844	0.366363	-0.00549015	8	3.02089e-05	13	0	8.2902	-2.01139e-06
2	1	0	1	0	0	159.994	0.350039	0.349648	-0.0017156	9	2.33207e-05	13	0	9.9772	-5.99855e-07
2	0	0	1	0	0	161.769	0.367793	0.367366	0.00244904	9	2.97353e-05	13	0	1.748	8.99696e-07
2	1	0	1	0	0	163.567	0.385772	0.385324	0.00423436	9	3.63937e-05	13	0	3.5458	1.6316e-06
2	1	0	1	0	0	165.365	0.40375	0.403341	0.00282551	9	4.28112e-05	13	0	5.3437	1.13965e-06
2	1	0	1	0	0	167.163	0.421729	0.421258	0.00417063	9	4.8961e-05	13	0	7.1416	1.75691e-06
2	1	0	1	0	0	168.961	0.439708	0.439264	0.00465792	9	5.492e-05	13	0	8.9394	2.04606e-06
2	0	0	1	0	0	170.664	0.443253	0.442773	-0.0037534	9	5.66354e-05	13	0	0.6493	-1.6619e-06
2	1	0	1	0	0	172.462	0.425275	0.424775	-0.0022448	9	5.1581e-05	13	0	2.4471	-9.53532e-07
2	0	0	1	0	0	174.26	0.407296	0.406844	-0.00205471	9	4.59801e-05	13	0	4.245	-8.35949e-07
2	0	0	1	0	0	176.058	0.389317	0.388863	-0.00497694	9	3.98902e-05	13	0	6.0429	-1.93534e-06
2	1	0	1	0	0	177.856	0.371339	0.370923	-0.00404273	9	3.32609e-05	13	0	7.8407	-1.49954e-06
2	0	0	1	0	0	179.654	0.35336	0.352908	-0.00249422	9	2.60477e-05	13	0	9.6386	-8.80232e-07
2	1	0	1	0	1	181.318	0.363298	0.362904	0.0046187	10	2.93519e-05	13	0	1.2985	1.67615e-06
2	1	0	1	0	1	183.116	0.381277	0.380862	0.00510463	10	3.60319e-05	13	0	3.0964	1.94416e-06
2	1	0	1	0	1	184.914	0.399256	0.398852	0.00318214	10	4.24672e-05	13	0	4.8942	1.2692e-06
2	1	0	1	0	1	186.712	0.417233	0.416778	0.0044156	10	4.86702e-05	13	0	6.6921	1.84033e-06
2	0	0	1	0	1	188.51	0.435213	0.43476	0.00413551	10	5.46422e-05	13	0	8.49	1.79795e-06
2	0	0	1	0	1	190.214	0.447748	0.44727	-0.0034717	10	5.89347e-05	13	0	0.1998	-1.55279e-06
2	0	0	1	0	1	192.011	0.429769	0.429257	-0.00359089	10	5.40818e-05	13	0	1.9977	-1.54141e-06
2	0	0	1	0	1	193.809	0.411791	0.411319	-0.00198435	10	4.86e-05	13	0	3.7955	-8.16203e-07
2	0	0	1	0	1	195.607	0.393812	0.393317	-0.00352976	10	4.26676e-05	13	0	5.5934	-1.38831e-06
2	0	0	1	0	1	197.405	0.375833	0.375388	-0.00566943	10	3.6202e-05	13	0	7.3913	-2.12824e-06
2	0	0	1	0	1	199.203	0.357855	0.357393	-0.00416979	10	2.91677e-05	13	0	9.1891	-1.49025e-06
2	0	0	0	0	1	199.986	0.349989	0.349534	-0.00731784	10	2.58566e-05	13	0	9.9722	-2.55783e-06

File: 20251112_2-148_006_gamma_reproducibility_2_Na2_02_PEIS_C02.mpt
EC-Lab ASCII FILE
Nb header lines : 63

Potentio Electrochemical Impedance Spectroscopy

Run on channel : 2 (SN 69290)
User :
CE vs. WE compliance from -10 V to 10 V
Electrode connection : standard
Potential control : Ewe
Ewe ctrl range : min = -1.00 V, max = 1.00 V
Safety Limits :
	Do not start on E overload
Acquisition started on : 11/12/2025 21:00:04.183
Loaded Setting File :  C:\Users\User\Documents\EC-Lab\Data\Yatsuzuka\20251112_2-148_alpha_reproducibility\20251112_2-148_002_alpha_reproducibility_2_K1.mps
Saved on :
	File : 20251112_2-148_006_gamma_reproducibility_2_Na2_r_02_PEIS_C02.mpr
	Directory : C:\Users\User\Documents\EC-Lab\Data\Yatsuzuka\20251112_2-148_alpha_reproducibility\
	Host : 192.109.209.127
Device : SP-150e (SN .003883)
Address : 192.109.209.128
EC-Lab for windows v11.52 (software)
Internet server v11.52 (firmware)
Command interpretor v11.50 (firmware)
Electrode material :
Initial state :
Electrolyte :
Comments :
Electrode surface area : 0.001 cm2
Characteristic mass : 0.001 g
Equivalent Weight : 0.000 g/eq.
Density : 0.000 g/cm3
Volume (V) : 0.001 cm3
Cycle Definition : Charge/Discharge alternance
Mode                Single sine
E (V)               0.4500
vs.                 Ref
tE (h:m:s)          0:00:0.0000
record              0
dI                  0.000
unit dI             mA
dt (s)              0.000
fi                  500.000
unit fi             kHz
ff                  1.000
unit ff             Hz
Nd                  6
Points              per decade
spacing             Logarithmic
Va (mV)             10.0
pw                  0.10
Na                  2
corr                0
E range min (V)     -1.000
E range max (V)     1.000
I Range             Auto
Bandwidth           5
nc cycles           0
goto Ns'            0
nr cycles           0
inc. cycle          0

freq/Hz	Re(Z)/Ohm	-Im(Z)/Ohm	|Z|/Ohm	Phase(Z)/deg	time/s	<Ewe>/V	<I>/mA	Cs/uF	Cp/uF	cycle number	I Range	|Ewe|/V	|I|/A	Ns	(Q-Qo)/mA.h	Re(Y)/Ohm-1	Im(Y)/Ohm-1	|Y|/Ohm-1	Phase(Y)/deg	Re(C)/nF	Im(C)/nF	|C|/nF	Phase(C)/deg	Re(M)	Im(M)	|M|	Phase(M)/deg	Re(Permittivity)	Im(Permittivity)	|Permittivity|	Phase(Permittivity)/deg	Re(Resistivity)/Ohm.cm	Im(Resistivity)/Ohm.cm	|Resistivity|/Ohm.cm	Phase(Resistivity)/deg	Re(Conductivity)/mS/cm	Im(Conductivity)/mS/cm	|Conductivity|/mS/cm	Phase(Conductivity)/deg	Tan(Delta)	Loss Angle(Delta)/deg	dq/mA.h
500019	18.3485	-2.48378	18.5158	7.70908	201.934	0.449777	0.0179501	-0.128151	-0.002306	1	10	0.00605109	0.000326806	0	2.96369e-05	0.0535197	-0.00724478	0.0540078	-7.70908	-2.306	17.0352	17.1906	-97.7091	0.0000000E+000	0.0000000E+000	0.0000000E+000	97.7091	0.0000000E+000	0.0000000E+000	0.0000000E+000	-97.7091	0.0000000E+000	0.0000000E+000	0.0000000E+000	7.70908	0.0000000E+000	0.0000000E+000	0.0000000E+000	-7.70908	7.38734	82.2909	2.96369e-05
231063	11.6528	-0.859195	11.6844	4.21697	202.642	0.449545	0.0190744	-0.801676	-0.00433481	1	10	0.0107089	0.000916513	0	3.50335e-05	0.0853525	-0.00629331	0.0855842	-4.21697	-4.3348	58.7905	58.9501	-94.217	0.0000000E+000	0.0000000E+000	0.0000000E+000	94.217	0.0000000E+000	0.0000000E+000	0.0000000E+000	-94.217	0.0000000E+000	0.0000000E+000	0.0000000E+000	4.21697	0.0000000E+000	0.0000000E+000	0.0000000E+000	-4.21697	13.5624	85.783	3.35801e-06
106786	10.8487	-0.119571	10.8494	0.63147	203.622	0.449547	0.0195965	-12.4646	-0.00151398	1	10	0.0107924	0.000994751	0	3.88616e-05	0.0921654	-0.00101582	0.092171	-0.63147	-1.51398	137.364	137.372	-90.6315	0.0000000E+000	0.0000000E+000	0.0000000E+000	90.6315	0.0000000E+000	0.0000000E+000	0.0000000E+000	-90.6315	0.0000000E+000	0.0000000E+000	0.0000000E+000	0.63147	0.0000000E+000	0.0000000E+000	0.0000000E+000	-0.63147	90.7303	89.3685	7.70794e-07
49352.4	10.8167	0.0664416	10.8169	-0.351934	204.467	0.449554	0.01875	48.5369	0.00183123	1	10	0.0106083	0.000980711	0	4.36535e-05	0.0924459	0.000567847	0.0924476	0.351934	1.83125	298.126	298.132	-89.6481	0.0000000E+000	0.0000000E+000	0.0000000E+000	89.6481	0.0000000E+000	0.0000000E+000	0.0000000E+000	-89.6481	0.0000000E+000	0.0000000E+000	0.0000000E+000	-0.351934	0.0000000E+000	0.0000000E+000	0.0000000E+000	0.351934	162.801	89.6481	1.80981e-06
22806.6	10.8582	0.131207	10.859	-0.692306	205.311	0.449556	0.01831	53.1868	0.00776486	1	10	0.0104167	0.000959264	0	4.93515e-05	0.0920824	0.00111269	0.0920892	0.692306	7.76487	642.595	642.642	-89.3077	0.0000000E+000	0.0000000E+000	0.0000000E+000	89.3077	0.0000000E+000	0.0000000E+000	0.0000000E+000	-89.3077	0.0000000E+000	0.0000000E+000	0.0000000E+000	-0.692306	0.0000000E+000	0.0000000E+000	0.0000000E+000	0.692306	82.7567	89.3077	2.0191e-06
10540.4	10.9084	0.183839	10.91	-0.965507	206.156	0.449559	0.0190633	82.1348	0.0233212	1	10	0.0101744	0.000932581	0	5.14112e-05	0.0916461	0.0015445	0.0916591	0.965507	23.3213	1383.81	1384.01	-89.0345	0.0000000E+000	0.0000000E+000	0.0000000E+000	89.0345	0.0000000E+000	0.0000000E+000	0.0000000E+000	-89.0345	0.0000000E+000	0.0000000E+000	0.0000000E+000	-0.965507	0.0000000E+000	0.0000000E+000	0.0000000E+000	0.965507	59.3371	89.0345	1.32529e-06
4871.56	10.9671	0.278617	10.9706	-1.45528	207.148	0.449559	0.0186866	117.258	0.0756307	1	10	0.0106833	0.000973806	0	5.69484e-05	0.0911232	0.00231497	0.0911526	1.45528	75.6305	2977.01	2977.98	-88.5447	0.0000000E+000	0.0000000E+000	0.0000000E+000	88.5447	0.0000000E+000	0.0000000E+000	0.0000000E+000	-88.5447	0.0000000E+000	0.0000000E+000	0.0000000E+000	-1.45528	0.0000000E+000	0.0000000E+000	0.0000000E+000	1.45528	39.3625	88.5447	2.30674e-06
2250.72	11.0251	0.47809	11.0355	-2.483	208.3	0.449566	0.0190036	147.907	0.277604	1	10	0.0101278	0.000917747	0	6.36346e-05	0.0905317	0.00392579	0.0906168	2.483	277.604	6401.76	6407.77	-87.517	0.0000000E+000	0.0000000E+000	0.0000000E+000	87.517	0.0000000E+000	0.0000000E+000	0.0000000E+000	-87.517	0.0000000E+000	0.0000000E+000	0.0000000E+000	-2.483	0.0000000E+000	0.0000000E+000	0.0000000E+000	2.483	23.0608	87.517	5.13806e-06
1040.33	11.0993	0.890049	11.1349	-4.58471	209.23	0.449564	0.019108	171.883	1.09821	1	10	0.0102038	0.000916377	0	6.79061e-05	0.08952	0.00717857	0.0898074	4.58471	1098.21	13695.2	13739.1	-85.4153	0.0000000E+000	0.0000000E+000	0.0000000E+000	85.4153	0.0000000E+000	0.0000000E+000	0.0000000E+000	-85.4153	0.0000000E+000	0.0000000E+000	0.0000000E+000	-4.58471	0.0000000E+000	0.0000000E+000	0.0000000E+000	4.58471	12.4704	85.4153	2.15865e-06
480.769	11.2357	1.75878	11.3725	-8.89664	210.16	0.449562	0.0188022	188.223	4.50179	1	10	0.0102297	0.000899516	0	7.25899e-05	0.0868737	0.0135988	0.0879316	8.89664	4501.79	28758.9	29109.1	-81.1034	0.0000000E+000	0.0000000E+000	0.0000000E+000	81.1034	0.0000000E+000	0.0000000E+000	0.0000000E+000	-81.1034	0.0000000E+000	0.0000000E+000	0.0000000E+000	-8.89664	0.0000000E+000	0.0000000E+000	0.0000000E+000	8.89664	6.38832	81.1034	2.38896e-06
222.061	11.4193	3.54476	11.9568	-17.2454	211.084	0.449563	0.0184908	202.191	17.7708	1	10	0.0102271	0.000855337	0	7.75202e-05	0.0798746	0.0247946	0.0836345	17.2454	17770.8	57247.5	59942.3	-72.7546	0.0000000E+000	0.0000000E+000	0.0000000E+000	72.7546	0.0000000E+000	0.0000000E+000	0.0000000E+000	-72.7546	0.0000000E+000	0.0000000E+000	0.0000000E+000	-17.2454	0.0000000E+000	0.0000000E+000	0.0000000E+000	17.2454	3.22145	72.7546	2.99473e-06
102.667	11.7429	7.29473	13.8242	-31.8488	212.021	0.449568	0.0190688	212.509	59.1724	1	10	0.0102223	0.000739452	0	8.11726e-05	0.0614463	0.0381708	0.0723371	31.8488	59172.4	95254	112137	-58.1512	0.0000000E+000	0.0000000E+000	0.0000000E+000	58.1512	0.0000000E+000	0.0000000E+000	0.0000000E+000	-58.1512	0.0000000E+000	0.0000000E+000	0.0000000E+000	-31.8488	0.0000000E+000	0.0000000E+000	0.0000000E+000	31.8488	1.60977	58.1512	1.74688e-06
47.4443	12.3376	15.1414	19.5315	-50.8261	213.178	0.449552	0.000940655	221.549	133.148	1	11	0.0102495	0.00052477	0	8.46028e-05	0.0323415	0.0396915	0.0511995	50.8261	133148	108491	171752	-39.1739	0.0000000E+000	0.0000000E+000	0.0000000E+000	39.1739	0.0000000E+000	0.0000000E+000	0.0000000E+000	-39.1739	0.0000000E+000	0.0000000E+000	0.0000000E+000	-50.8261	0.0000000E+000	0.0000000E+000	0.0000000E+000	50.8261	0.814821	39.1739	1.35666e-06
21.9144	13.5467	31.5499	34.3353	-66.7626	214.046	0.449555	0.000362876	230.193	194.36	1	11	0.0102207	0.000297672	0	8.54183e-05	0.0114909	0.0267619	0.0291246	66.7626	194360	83453.1	211519	-23.2374	0.0000000E+000	0.0000000E+000	0.0000000E+000	23.2374	0.0000000E+000	0.0000000E+000	0.0000000E+000	-23.2374	0.0000000E+000	0.0000000E+000	0.0000000E+000	-66.7626	0.0000000E+000	0.0000000E+000	0.0000000E+000	66.7626	0.429374	23.2374	9.26649e-07
10.1329	15.8161	66.0626	67.9294	-76.5362	214.975	0.44956	0.000671875	237.755	224.866	1	11	0.0102151	0.000150378	0	8.55484e-05	0.00342754	0.0143166	0.0147212	76.5362	224866	53835.3	231220	-13.4638	0.0000000E+000	0.0000000E+000	0.0000000E+000	13.4638	0.0000000E+000	0.0000000E+000	0.0000000E+000	-13.4638	0.0000000E+000	0.0000000E+000	0.0000000E+000	-76.5362	0.0000000E+000	0.0000000E+000	0.0000000E+000	76.5362	0.239411	13.4638	-2.02088e-07
4.68375	21.1079	138.437	140.037	-81.3307	216.092	0.449571	-0.000313016	245.456	239.879	1	12	0.0102144	7.29407e-05	0	8.56178e-05	0.00107636	0.00705938	0.00714096	81.3307	239879	36575	242652	-8.66927	0.0000000E+000	0.0000000E+000	0.0000000E+000	8.66927	0.0000000E+000	0.0000000E+000	0.0000000E+000	-8.66927	0.0000000E+000	0.0000000E+000	0.0000000E+000	-81.3307	0.0000000E+000	0.0000000E+000	0.0000000E+000	81.3307	0.152473	8.66928	3.46601e-07
2.16533	30.435	288.982	290.581	-83.9879	217.809	0.449576	0.000388264	254.346	251.556	1	12	0.0102089	3.51328e-05	0	8.50562e-05	0.000360445	0.00342246	0.00344138	83.9879	251556	26493.3	252947	-6.01209	0.0000000E+000	0.0000000E+000	0.0000000E+000	6.01209	0.0000000E+000	0.0000000E+000	0.0000000E+000	-6.01209	0.0000000E+000	0.0000000E+000	0.0000000E+000	-83.9879	0.0000000E+000	0.0000000E+000	0.0000000E+000	83.9879	0.105318	6.01208	-6.71551e-07
1.00006	48.5778	602.855	604.809	-85.3931	222.149	0.449577	0.000144842	263.985	262.282	1	13	0.0102118	1.68843e-05	0	8.53058e-05	0.000132801	0.00164807	0.00165341	85.3931	262282	21134.6	263132	-4.60691	0.0000000E+000	0.0000000E+000	0.0000000E+000	4.60691	0.0000000E+000	0.0000000E+000	0.0000000E+000	-4.60691	0.0000000E+000	0.0000000E+000	0.0000000E+000	-85.3931	0.0000000E+000	0.0000000E+000	0.0000000E+000	85.3931	0.0805795	4.6069	4.96063e-07