Folder: SI_for_publications/ACS_Catal_2026/Figures_Na_K/main_figures/data/EC/20251112_2-148_alpha_reproducibility (part 31)

File: 20251112_2-148_006_gamma_reproducibility_2_K1_01_CVA_C02.mpt
EC-Lab ASCII FILE
Nb header lines : 66

Cyclic Voltammetry Advanced

Run on channel : 2 (SN 69290)
User :
CE vs. WE compliance from -10 V to 10 V
Electrode connection : standard
Potential control : Ewe
Ewe ctrl range : min = -1.00 V, max = 1.00 V
Safety Limits :
	Do not start on E overload
Acquisition started on : 11/12/2025 19:12:40.101
Loaded Setting File :  C:\Users\User\Documents\EC-Lab\Data\Yatsuzuka\20251112_2-148_alpha_reproducibility\20251112_2-148_002_alpha_reproducibility_2_K1.mps
Saved on :
	File : 20251112_2-148_006_gamma_reproducibility_2_K1_01_CVA_C02.mpr
	Directory : C:\Users\User\Documents\EC-Lab\Data\Yatsuzuka\20251112_2-148_alpha_reproducibility\
	Host : 192.109.209.127
Device : SP-150e (SN .003883)
Address : 192.109.209.128
EC-Lab for windows v11.52 (software)
Internet server v11.52 (firmware)
Command interpretor v11.50 (firmware)
Electrode material :
Initial state :
Electrolyte :
Comments :
Electrode surface area : 0.001 cm2
Characteristic mass : 0.001 g
Equivalent Weight : 0.000 g/eq.
Density : 0.000 g/cm3
Volume (V) : 0.001 cm3
Cycle Definition : Charge/Discharge alternance
Ei (V)              0.350
vs.                 Ref
ti (h:m:s)          0:00:10.0000
dti (s)             0.0000
dE/dt               10.000
dE/dt unit          mV/s
E1 (V)              0.450
vs.                 Ref
t1 (h:m:s)          0:00:0.0000
dt1 (s)             0.1000
Step percent        50
N                   10
E range min (V)     -1.000
E range max (V)     1.000
I Range             Auto
I Range min         Unset
I Range max         Unset
I Range init        Unset
Bandwidth           5
E2 (V)              0.350
vs.                 Ref
t2 (h:m:s)          0:00:0.0000
dt2 (s)             0.1000
nc cycles           9
nr                  1
Reverse Scan        0
Ef (V)              0.000
vs.                 Eoc
tf (h:m:s)          0:00:0.0000
dtf (s)             0.1000

mode	ox/red	error	control changes	Ns changes	counter inc.	time/s	control/V	Ewe/V	<I>/mA	cycle number	(Q-Qo)/C	I Range	Ns	step time/s	P/W
2	1	0	0	0	0	0.000000000000000E+000	0.349989	0.349534	0.0101304	1	0.0000000E+000	13	0	0.000000000000000E+000	3.54091e-06
2	1	0	1	0	0	1.7755	0.367743	0.367324	0.00868297	1	1.49076e-05	13	0	1.748	3.18946e-06
2	1	0	1	0	0	3.5733	0.385722	0.385282	0.0104089	1	3.13141e-05	13	0	3.5458	4.01035e-06
2	1	0	1	0	0	5.3712	0.403699	0.403311	0.0118713	1	4.86608e-05	13	0	5.3437	4.78782e-06
2	1	0	1	0	0	7.1691	0.421679	0.421254	0.0109779	1	6.67448e-05	13	0	7.1416	4.62448e-06
2	1	0	1	0	0	8.9669	0.439658	0.439217	0.00890967	1	8.54497e-05	13	0	8.9394	3.91328e-06
2	1	0	1	0	0	10.6757	0.443253	0.442754	-0.000348657	1	9.80781e-05	13	0	10.6482	-1.54369e-07
2	0	0	1	0	0	12.4735	0.425275	0.424813	-0.0023584	1	9.78356e-05	13	0	0.5992	-1.00188e-06
2	0	0	1	0	0	14.2714	0.407296	0.406836	-0.00073283	1	9.44864e-05	13	0	2.3971	-2.98141e-07
2	0	0	1	0	0	16.0693	0.389317	0.388856	-0.00270139	1	8.93362e-05	13	0	4.195	-1.05045e-06
2	0	0	1	0	0	17.8671	0.371339	0.370855	-0.00616754	1	8.29111e-05	13	0	5.9928	-2.28726e-06
2	0	0	1	0	0	19.665	0.35336	0.352908	-0.00627063	1	7.5381e-05	13	0	7.7907	-2.21296e-06
2	1	0	1	0	1	21.3296	0.363298	0.362877	0.00734798	2	8.057e-05	13	0	1.2985	2.66642e-06
2	1	0	1	0	1	23.1275	0.381277	0.380854	0.00382653	2	9.06553e-05	13	0	3.0964	1.45735e-06
2	0	0	1	0	1	24.9253	0.399256	0.398797	0.00746111	2	0.00010103	13	0	4.8942	2.97547e-06
2	1	0	1	0	1	26.7232	0.417233	0.416786	0.00425931	2	0.000111755	13	0	6.6921	1.77522e-06
2	1	0	1	0	1	28.5211	0.435213	0.434792	0.00781607	2	0.000123153	13	0	8.49	3.39837e-06
2	1	0	1	0	1	30.2248	0.447748	0.447264	0.000706272	2	0.000133299	13	0	0.000000000000000E+000	3.1589e-07
2	0	0	1	0	1	32.0227	0.429769	0.429289	-0.00394653	2	0.000131054	13	0	1.698	-1.6942e-06
2	0	0	1	0	1	33.8205	0.411791	0.411284	-0.00123607	2	0.000126595	13	0	3.4958	-5.08378e-07
2	0	0	1	0	1	35.6184	0.393812	0.393353	-0.00562189	2	0.000120902	13	0	5.2937	-2.21139e-06
2	0	0	1	0	1	37.4163	0.375833	0.37536	-0.00195335	2	0.000114195	13	0	7.0916	-7.3321e-07
2	0	0	1	0	1	39.2141	0.357855	0.357413	-0.00657653	2	0.000106572	13	0	8.8894	-2.35054e-06
2	1	0	1	0	0	40.8787	0.358804	0.358369	0.0037237	3	0.000106807	13	0	0.849	1.33446e-06
2	1	0	1	0	0	42.6766	0.376782	0.376362	0.00652752	3	0.000115805	13	0	2.6469	2.45671e-06
2	1	0	1	0	0	44.4745	0.394761	0.394361	0.00514874	3	0.000124937	13	0	4.4448	2.03046e-06
2	1	0	1	0	0	46.2723	0.41274	0.412242	0.00474492	3	0.000134268	13	0	6.2426	1.95606e-06
2	1	0	1	0	0	48.0702	0.430717	0.430284	0.00736429	3	0.000143897	13	0	8.0405	3.16874e-06
2	1	0	1	0	0	49.8681	0.448697	0.448281	0.00425391	3	0.000154206	13	0	9.8384	1.90695e-06
2	0	0	1	0	0	51.5718	0.434264	0.433749	-0.00369537	3	0.000152721	13	0	1.5482	-1.60286e-06
2	0	0	1	0	0	53.3697	0.416285	0.415821	-0.00130347	3	0.000148105	13	0	3.3461	-5.42013e-07
2	0	0	1	0	0	55.1675	0.398307	0.397828	-0.00516511	3	0.000142387	13	0	5.1439	-2.05482e-06
2	0	0	1	0	0	56.9654	0.380328	0.37985	-0.00462016	3	0.000135805	13	0	6.9418	-1.75497e-06
2	1	0	1	0	0	58.7633	0.362349	0.361896	-0.00638738	3	0.000128322	13	0	8.7397	-2.31157e-06
2	1	0	1	0	1	60.4279	0.354309	0.353935	0.00561821	4	0.000124362	13	0	0.3996	1.98848e-06
2	1	0	1	0	1	62.2257	0.372288	0.37191	0.00674773	4	0.00013272	13	0	2.1974	2.50955e-06
2	1	0	1	0	1	64.0236	0.390266	0.389841	0.00308194	4	0.000141328	13	0	3.9953	1.20147e-06
2	1	0	1	0	1	65.8215	0.408245	0.407816	0.00674788	4	0.000149954	13	0	5.7932	2.75189e-06
2	0	0	1	0	1	67.6193	0.426224	0.425759	0.00358428	4	0.000158807	13	0	7.591	1.52604e-06
2	1	0	1	0	1	69.4173	0.444202	0.443761	0.00685901	4	0.000168058	13	0	9.389	3.04376e-06
2	0	0	1	0	1	71.1209	0.438759	0.438297	-0.0023955	4	0.000169457	13	0	0.9988	-1.04994e-06
2	0	0	1	0	1	72.9188	0.42078	0.420332	-0.00139691	4	0.000164961	13	0	2.7967	-5.87165e-07
2	0	0	1	0	1	74.7167	0.402801	0.402357	-0.0036854	4	0.000159368	13	0	4.5946	-1.48285e-06
2	1	0	1	0	1	76.5145	0.384823	0.384343	-0.00528522	4	0.000152882	13	0	6.3924	-2.03134e-06
2	0	0	1	0	1	78.3124	0.366844	0.366381	-0.00410711	4	0.000145632	13	0	8.1903	-1.50477e-06
2	1	0	1	0	0	79.9994	0.350039	0.349648	-0.00153229	5	0.000138007	13	0	9.8773	-5.35761e-07
2	0	0	1	0	0	81.7749	0.367793	0.367387	0.00487141	5	0.000145736	13	0	1.748	1.7897e-06
2	1	0	1	0	0	83.5727	0.385772	0.385342	0.00512178	5	0.000153977	13	0	3.5458	1.97363e-06
2	0	0	1	0	0	85.3706	0.40375	0.403321	0.00623033	5	0.000162285	13	0	5.3437	2.51282e-06
2	1	0	1	0	0	87.1685	0.421729	0.421302	0.00435688	5	0.000170648	13	0	7.1416	1.83556e-06
2	1	0	1	0	0	88.9663	0.439708	0.439294	0.00357947	5	0.000179275	13	0	8.9394	1.57244e-06
2	1	0	1	0	0	90.6701	0.443253	0.442756	-0.000303935	5	0.000183453	13	0	0.5994	-1.34569e-07
2	0	0	1	0	0	92.4679	0.425275	0.424803	-0.00103622	5	0.000179134	13	0	2.3972	-4.40189e-07
2	0	0	1	0	0	94.2658	0.407296	0.406834	-0.00414812	5	0.000173674	13	0	4.1951	-1.6876e-06
2	0	0	1	0	0	96.0637	0.389317	0.388875	-0.00546071	5	0.000167385	13	0	5.993	-2.12353e-06
2	0	0	1	0	0	97.8615	0.371339	0.370904	-0.00645953	5	0.00016034	13	0	7.7908	-2.39587e-06
2	0	0	1	0	0	99.6594	0.35336	0.352909	-0.00688807	5	0.000152484	13	0	9.5887	-2.43086e-06
2	1	0	1	0	1	101.324	0.363298	0.362887	0.00223054	6	0.000156431	13	0	1.2985	8.09433e-07
2	1	0	1	0	1	103.122	0.381277	0.380844	0.00267228	6	0.00016446	13	0	3.0964	1.01772e-06
2	1	0	1	0	1	104.92	0.399256	0.398818	0.00328613	6	0.000172479	13	0	4.8942	1.31057e-06
[...]
2	1	0	1	0	0	129.862	0.448697	0.448288	0.00424287	7	0.000205204	13	0	9.8384	1.90203e-06
2	0	0	1	0	0	131.566	0.434264	0.433763	-0.0022152	7	0.000202542	13	0	1.5756	-9.60871e-07
2	0	0	1	0	0	133.364	0.416285	0.415778	-0.00272528	7	0.000197459	13	0	3.3735	-1.13311e-06
2	0	0	1	0	0	135.162	0.398307	0.397908	-0.00175271	7	0.000191519	13	0	5.1713	-6.97419e-07
2	0	0	1	0	0	136.96	0.380328	0.379848	-0.00587648	7	0.0001849	13	0	6.9692	-2.23217e-06
2	1	0	1	0	0	138.758	0.362349	0.361867	-0.00250634	7	0.000177515	13	0	8.7671	-9.0696e-07
2	0	0	1	0	1	140.422	0.354309	0.353868	0.00436323	8	0.000173587	13	0	0.4271	1.54401e-06
2	0	0	1	0	1	142.22	0.372288	0.371823	0.00278969	8	0.000181221	13	0	2.2249	1.03727e-06
2	1	0	1	0	1	144.018	0.390266	0.38986	0.0022694	8	0.00018895	13	0	4.0228	8.84748e-07
2	1	0	1	0	1	145.816	0.408245	0.407806	0.00522338	8	0.000196591	13	0	5.8207	2.13013e-06
2	1	0	1	0	1	147.614	0.426224	0.425809	0.00590548	8	0.000204299	13	0	7.6185	2.51461e-06
2	0	0	1	0	1	149.412	0.444202	0.443732	0.00594252	8	0.000212196	13	0	9.4165	2.63689e-06
2	0	0	1	0	1	151.115	0.438759	0.43824	-0.00342951	8	0.000212622	13	0	1.0987	-1.50295e-06
2	0	0	1	0	1	152.913	0.42078	0.42029	-0.00487503	8	0.000207711	13	0	2.8966	-2.04893e-06
2	0	0	1	0	1	154.711	0.402801	0.402334	-0.00444184	8	0.000201959	13	0	4.6945	-1.7871e-06
2	0	0	1	0	1	156.509	0.384823	0.384344	-0.00468341	8	0.000195523	13	0	6.4923	-1.80004e-06
2	1	0	1	0	1	158.307	0.366844	0.366416	-0.00480663	8	0.000188379	13	0	8.2902	-1.76123e-06
2	1	0	1	0	0	159.994	0.350039	0.349553	-0.00322899	9	0.000180919	13	0	9.9772	-1.1287e-06
2	1	0	1	0	0	161.769	0.367793	0.367352	0.00224569	9	0.000188159	13	0	1.748	8.24958e-07
2	1	0	1	0	0	163.567	0.385772	0.385345	0.00288582	9	0.000195797	13	0	3.5458	1.11204e-06
2	1	0	1	0	0	165.365	0.40375	0.403343	0.00364524	9	0.000203363	13	0	5.3437	1.47028e-06
2	1	0	1	0	0	167.163	0.421729	0.421312	0.00501521	9	0.00021089	13	0	7.1416	2.11297e-06
2	1	0	1	0	0	168.961	0.439708	0.439222	0.00619028	9	0.000218557	13	0	8.9394	2.71891e-06
2	0	0	1	0	0	170.664	0.443253	0.442791	-0.00371773	9	0.000221877	13	0	0.6493	-1.64618e-06
2	0	0	1	0	0	172.462	0.425275	0.424786	-0.00460531	9	0.000217238	13	0	2.4471	-1.95627e-06
2	0	0	1	0	0	174.26	0.407296	0.406848	-0.00484618	9	0.000211684	13	0	4.245	-1.97166e-06
2	1	0	1	0	0	176.058	0.389317	0.388807	-0.00536714	9	0.000205424	13	0	6.0429	-2.08678e-06
2	0	0	1	0	0	177.856	0.371339	0.370885	-0.00593364	9	0.000198483	13	0	7.8407	-2.2007e-06
2	0	0	1	0	0	179.654	0.35336	0.352912	-0.0063666	9	0.000190797	13	0	9.6386	-2.24685e-06
2	1	0	1	0	1	181.318	0.363298	0.362848	0.00462666	10	0.000194507	13	0	1.2985	1.67877e-06
2	0	0	1	0	1	183.116	0.381277	0.380829	0.00457617	10	0.000202057	13	0	3.0964	1.74274e-06
2	0	0	1	0	1	184.914	0.399256	0.398833	0.00446052	10	0.000209528	13	0	4.8942	1.779e-06
2	0	0	1	0	1	186.712	0.417233	0.416835	0.00464886	10	0.000216938	13	0	6.6921	1.93781e-06
2	0	0	1	0	1	188.51	0.435213	0.434783	0.00496554	10	0.000224425	13	0	8.49	2.15893e-06
2	0	0	1	0	1	190.214	0.447748	0.447265	-0.00347969	10	0.000230425	13	0	0.1998	-1.55634e-06
2	0	0	1	0	1	192.011	0.429769	0.429325	-0.00394327	10	0.000226125	13	0	1.9977	-1.69294e-06
2	0	0	1	0	1	193.809	0.411791	0.411364	-0.00375749	10	0.000220742	13	0	3.7955	-1.5457e-06
2	0	0	1	0	1	195.607	0.393812	0.393299	-0.00339175	10	0.00021467	13	0	5.5934	-1.33397e-06
2	0	0	1	0	1	197.405	0.375833	0.375369	-0.00246336	10	0.000207918	13	0	7.3913	-9.24668e-07
2	0	0	1	0	1	199.203	0.357855	0.357361	-0.00257425	10	0.000200441	13	0	9.1891	-9.19938e-07
2	0	0	0	0	1	199.986	0.349989	0.349553	-0.00125877	10	0.000196928	13	0	9.9722	-4.40007e-07

File: 20251112_2-148_006_gamma_reproducibility_2_K1_02_PEIS_C02.mpt
EC-Lab ASCII FILE
Nb header lines : 63

Potentio Electrochemical Impedance Spectroscopy

Run on channel : 2 (SN 69290)
User :
CE vs. WE compliance from -10 V to 10 V
Electrode connection : standard
Potential control : Ewe
Ewe ctrl range : min = -1.00 V, max = 1.00 V
Safety Limits :
	Do not start on E overload
Acquisition started on : 11/12/2025 19:12:40.101
Loaded Setting File :  C:\Users\User\Documents\EC-Lab\Data\Yatsuzuka\20251112_2-148_alpha_reproducibility\20251112_2-148_002_alpha_reproducibility_2_K1.mps
Saved on :
	File : 20251112_2-148_006_gamma_reproducibility_2_K1_02_PEIS_C02.mpr
	Directory : C:\Users\User\Documents\EC-Lab\Data\Yatsuzuka\20251112_2-148_alpha_reproducibility\
	Host : 192.109.209.127
Device : SP-150e (SN .003883)
Address : 192.109.209.128
EC-Lab for windows v11.52 (software)
Internet server v11.52 (firmware)
Command interpretor v11.50 (firmware)
Electrode material :
Initial state :
Electrolyte :
Comments :
Electrode surface area : 0.001 cm2
Characteristic mass : 0.001 g
Equivalent Weight : 0.000 g/eq.
Density : 0.000 g/cm3
Volume (V) : 0.001 cm3
Cycle Definition : Charge/Discharge alternance
Mode                Single sine
E (V)               0.4500
vs.                 Ref
tE (h:m:s)          0:00:0.0000
record              0
dI                  0.000
unit dI             mA
dt (s)              0.000
fi                  500.000
unit fi             kHz
ff                  1.000
unit ff             Hz
Nd                  6
Points              per decade
spacing             Logarithmic
Va (mV)             10.0
pw                  0.10
Na                  2
corr                0
E range min (V)     -1.000
E range max (V)     1.000
I Range             Auto
Bandwidth           5
nc cycles           0
goto Ns'            0
nr cycles           0
inc. cycle          0

freq/Hz	Re(Z)/Ohm	-Im(Z)/Ohm	|Z|/Ohm	Phase(Z)/deg	time/s	<Ewe>/V	<I>/mA	Cs/uF	Cp/uF	cycle number	I Range	|Ewe|/V	|I|/A	Ns	(Q-Qo)/mA.h	Re(Y)/Ohm-1	Im(Y)/Ohm-1	|Y|/Ohm-1	Phase(Y)/deg	Re(C)/nF	Im(C)/nF	|C|/nF	Phase(C)/deg	Re(M)	Im(M)	|M|	Phase(M)/deg	Re(Permittivity)	Im(Permittivity)	|Permittivity|	Phase(Permittivity)/deg	Re(Resistivity)/Ohm.cm	Im(Resistivity)/Ohm.cm	|Resistivity|/Ohm.cm	Phase(Resistivity)/deg	Re(Conductivity)/mS/cm	Im(Conductivity)/mS/cm	|Conductivity|/mS/cm	Phase(Conductivity)/deg	Tan(Delta)	Loss Angle(Delta)/deg	dq/mA.h
500019	14.4898	-2.02807	14.6311	7.96764	202.275	0.449778	0.0167177	-0.156946	-0.00301553	1	10	0.00506646	0.00034628	0	2.93022e-05	0.0676879	-0.00947393	0.0683477	-7.96764	-3.01553	21.5449	21.7549	-97.9676	0.0000000E+000	0.0000000E+000	0.0000000E+000	97.9676	0.0000000E+000	0.0000000E+000	0.0000000E+000	-97.9676	0.0000000E+000	0.0000000E+000	0.0000000E+000	7.96764	0.0000000E+000	0.0000000E+000	0.0000000E+000	-7.96764	7.14465	82.0324	2.93022e-05
231063	8.31545	-0.641234	8.34014	4.40955	203.119	0.449549	0.0176984	-1.07417	-0.00634981	1	10	0.0103366	0.00123938	0	3.36644e-05	0.119547	-0.00921871	0.119902	-4.40955	-6.34981	82.3436	82.5881	-94.4096	0.0000000E+000	0.0000000E+000	0.0000000E+000	94.4096	0.0000000E+000	0.0000000E+000	0.0000000E+000	-94.4096	0.0000000E+000	0.0000000E+000	0.0000000E+000	4.40955	0.0000000E+000	0.0000000E+000	0.0000000E+000	-4.40955	12.9679	85.5904	2.23859e-06
106786	7.61639	-0.0127623	7.6164	0.0960068	204.099	0.44954	0.0179912	-116.782	-0.000327895	1	10	0.0108909	0.00142993	0	3.10758e-05	0.131296	-0.000220004	0.131296	-0.0960068	-0.3279	195.684	195.684	-90.096	0.0000000E+000	0.0000000E+000	0.0000000E+000	90.096	0.0000000E+000	0.0000000E+000	0.0000000E+000	-90.096	0.0000000E+000	0.0000000E+000	0.0000000E+000	0.0960068	0.0000000E+000	0.0000000E+000	0.0000000E+000	-0.0960068	596.788	89.904	-5.36629e-07
49352.4	7.61596	0.0979237	7.61659	-0.736651	204.943	0.449547	0.0178588	32.9325	0.00544351	1	10	0.0106338	0.00139614	0	3.60112e-05	0.131282	0.00168798	0.131292	0.736651	5.44349	423.366	423.401	-89.2634	0.0000000E+000	0.0000000E+000	0.0000000E+000	89.2634	0.0000000E+000	0.0000000E+000	0.0000000E+000	-89.2634	0.0000000E+000	0.0000000E+000	0.0000000E+000	-0.736651	0.0000000E+000	0.0000000E+000	0.0000000E+000	0.736651	77.7745	89.2634	3.07831e-06
22806.6	7.64493	0.12068	7.64588	-0.904375	205.787	0.449552	0.018062	57.8262	0.0144059	1	10	0.0104181	0.00136258	0	4.0891e-05	0.130773	0.00206434	0.130789	0.904375	14.4059	912.596	912.71	-89.0956	0.0000000E+000	0.0000000E+000	0.0000000E+000	89.0956	0.0000000E+000	0.0000000E+000	0.0000000E+000	-89.0956	0.0000000E+000	0.0000000E+000	0.0000000E+000	-0.904375	0.0000000E+000	0.0000000E+000	0.0000000E+000	0.904375	63.3487	89.0956	1.79831e-06
10540.4	7.66832	0.169739	7.67019	-1.26804	206.631	0.449563	0.0185412	88.9574	0.0435645	1	10	0.0102174	0.00133209	0	4.34526e-05	0.130343	0.00288515	0.130375	1.26804	43.5646	1968.12	1968.6	-88.732	0.0000000E+000	0.0000000E+000	0.0000000E+000	88.732	0.0000000E+000	0.0000000E+000	0.0000000E+000	-88.732	0.0000000E+000	0.0000000E+000	0.0000000E+000	-1.26804	0.0000000E+000	0.0000000E+000	0.0000000E+000	1.26804	45.1771	88.732	2.40975e-06
4871.56	7.70629	0.294501	7.71191	-2.18853	207.623	0.449553	0.0186699	110.934	0.161776	1	10	0.0109111	0.00141484	0	4.77843e-05	0.129575	0.00495179	0.12967	2.18853	161.776	4233.24	4236.33	-87.8115	0.0000000E+000	0.0000000E+000	0.0000000E+000	87.8115	0.0000000E+000	0.0000000E+000	0.0000000E+000	-87.8115	0.0000000E+000	0.0000000E+000	0.0000000E+000	-2.18853	0.0000000E+000	0.0000000E+000	0.0000000E+000	2.18853	26.1673	87.8115	1.21871e-06
2250.72	7.79121	0.541766	7.81002	-3.97769	208.775	0.449552	0.0189309	130.523	0.628067	1	10	0.0102556	0.00131314	0	5.1093e-05	0.127732	0.00888193	0.128041	3.97769	628.067	9032.31	9054.12	-86.0223	0.0000000E+000	0.0000000E+000	0.0000000E+000	86.0223	0.0000000E+000	0.0000000E+000	0.0000000E+000	-86.0223	0.0000000E+000	0.0000000E+000	0.0000000E+000	-3.97769	0.0000000E+000	0.0000000E+000	0.0000000E+000	3.97769	14.3811	86.0223	1.40145e-06
1040.33	7.93489	1.00041	7.99771	-7.18581	209.705	0.449558	0.018461	152.921	2.39274	1	10	0.0103545	0.00129468	0	5.6386e-05	0.124054	0.0156404	0.125036	7.18581	2392.74	18978.3	19128.6	-82.8142	0.0000000E+000	0.0000000E+000	0.0000000E+000	82.8142	0.0000000E+000	0.0000000E+000	0.0000000E+000	-82.8142	0.0000000E+000	0.0000000E+000	0.0000000E+000	-7.18581	0.0000000E+000	0.0000000E+000	0.0000000E+000	7.18581	7.93161	82.8142	3.31398e-06
480.769	8.16737	1.83722	8.37145	-12.6774	210.635	0.449551	0.0184386	180.187	8.67845	1	10	0.0103666	0.00123833	0	5.98483e-05	0.116541	0.0262155	0.119454	12.6774	8678.45	38580.1	39544.2	-77.3226	0.0000000E+000	0.0000000E+000	0.0000000E+000	77.3226	0.0000000E+000	0.0000000E+000	0.0000000E+000	-77.3226	0.0000000E+000	0.0000000E+000	0.0000000E+000	-12.6774	0.0000000E+000	0.0000000E+000	0.0000000E+000	12.6774	4.44551	77.3226	1.70111e-06
222.061	8.47009	3.47	9.15332	-22.2778	211.559	0.449553	0.0180807	206.547	29.6839	1	10	0.0103533	0.0011311	0	6.42053e-05	0.101095	0.0414164	0.10925	22.2778	29683.9	72456.7	78301.4	-67.7222	0.0000000E+000	0.0000000E+000	0.0000000E+000	67.7222	0.0000000E+000	0.0000000E+000	0.0000000E+000	-67.7222	0.0000000E+000	0.0000000E+000	0.0000000E+000	-22.2778	0.0000000E+000	0.0000000E+000	0.0000000E+000	22.2778	2.44095	67.7222	2.24118e-06
102.667	8.85591	6.88027	11.2145	-37.8441	212.496	0.449557	0.0190465	225.311	84.8072	1	10	0.0103468	0.000922624	0	6.98046e-05	0.0704162	0.0547072	0.0891702	37.8441	84807.2	109159	138232	-52.1559	0.0000000E+000	0.0000000E+000	0.0000000E+000	52.1559	0.0000000E+000	0.0000000E+000	0.0000000E+000	-52.1559	0.0000000E+000	0.0000000E+000	0.0000000E+000	-37.8441	0.0000000E+000	0.0000000E+000	0.0000000E+000	37.8441	1.28715	52.1559	3.17909e-06
47.4443	9.49014	14.1157	17.0093	-56.0866	213.407	0.449545	0.0168538	237.648	163.669	1	10	0.0103335	0.000607524	0	7.51378e-05	0.0328021	0.04879	0.0587915	56.0866	163669	110037	197220	-33.9134	0.0000000E+000	0.0000000E+000	0.0000000E+000	33.9134	0.0000000E+000	0.0000000E+000	0.0000000E+000	-33.9134	0.0000000E+000	0.0000000E+000	0.0000000E+000	-56.0866	0.0000000E+000	0.0000000E+000	0.0000000E+000	56.0866	0.672312	33.9134	2.48657e-06
21.9144	10.6257	29.2816	31.1499	-70.0552	214.514	0.449545	0.000592162	248.025	219.164	1	11	0.0103427	0.00033203	0	7.756e-05	0.0109508	0.0301773	0.0321028	70.0552	219164	79530.5	233148	-19.9448	0.0000000E+000	0.0000000E+000	0.0000000E+000	19.9448	0.0000000E+000	0.0000000E+000	0.0000000E+000	-19.9448	0.0000000E+000	0.0000000E+000	0.0000000E+000	-70.0552	0.0000000E+000	0.0000000E+000	0.0000000E+000	70.0552	0.36288	19.9449	7.04418e-07
10.1329	13.0019	60.6771	62.0545	-77.9055	215.442	0.449548	0.00100956	258.857	247.493	1	11	0.0103309	0.000166481	0	7.63389e-05	0.00337645	0.0157572	0.0161149	77.9055	247493	53032.8	253111	-12.0945	0.0000000E+000	0.0000000E+000	0.0000000E+000	12.0945	0.0000000E+000	0.0000000E+000	0.0000000E+000	-12.0945	0.0000000E+000	0.0000000E+000	0.0000000E+000	-77.9055	0.0000000E+000	0.0000000E+000	0.0000000E+000	77.9055	0.21428	12.0945	-1.08679e-06
4.68375	17.9726	127.394	128.656	-81.9698	216.558	0.449563	0.000670955	266.732	261.527	1	12	0.010336	8.03386e-05	0	7.71244e-05	0.00108581	0.00769645	0.00777267	81.9698	261527	36895.9	264117	-8.03022	0.0000000E+000	0.0000000E+000	0.0000000E+000	8.03022	0.0000000E+000	0.0000000E+000	0.0000000E+000	-8.03022	0.0000000E+000	0.0000000E+000	0.0000000E+000	-81.9698	0.0000000E+000	0.0000000E+000	0.0000000E+000	81.9698	0.141079	8.03021	-5.55099e-07
2.16533	27.8658	266.258	267.712	-84.0253	218.271	0.44957	0.000803693	276.054	273.063	1	12	0.0103301	3.85866e-05	0	7.86278e-05	0.000388808	0.00371506	0.00373535	84.0253	273063	28578	274554	-5.97466	0.0000000E+000	0.0000000E+000	0.0000000E+000	5.97466	0.0000000E+000	0.0000000E+000	0.0000000E+000	-5.97466	0.0000000E+000	0.0000000E+000	0.0000000E+000	-84.0253	0.0000000E+000	0.0000000E+000	0.0000000E+000	84.0253	0.104657	5.97467	3.73602e-07
1.00006	53.5295	557.512	560.075	-84.5156	222.611	0.449567	0.000611894	285.456	282.848	1	13	0.0103331	1.84495e-05	0	7.82077e-05	0.000170648	0.0017773	0.00178547	84.5156	282848	27157.7	284149	-5.48444	0.0000000E+000	0.0000000E+000	0.0000000E+000	5.48444	0.0000000E+000	0.0000000E+000	0.0000000E+000	-5.48444	0.0000000E+000	0.0000000E+000	0.0000000E+000	-84.5156	0.0000000E+000	0.0000000E+000	0.0000000E+000	84.5156	0.096015	5.48444	-9.70864e-08