Folder: SI_for_publications/ACS_Catal_2026/Figures_Na_K/main_figures/data/EC/20251112_2-148_alpha_reproducibility (part 32)

File: 20251112_2-148_006_gamma_reproducibility_2_K1_03_CVA_C02.mpt
EC-Lab ASCII FILE
Nb header lines : 66

Cyclic Voltammetry Advanced

Run on channel : 2 (SN 69290)
User :
CE vs. WE compliance from -10 V to 10 V
Electrode connection : standard
Potential control : Ewe
Ewe ctrl range : min = -1.00 V, max = 1.00 V
Safety Limits :
	Do not start on E overload
Acquisition started on : 11/12/2025 19:12:40.101
Loaded Setting File :  C:\Users\User\Documents\EC-Lab\Data\Yatsuzuka\20251112_2-148_alpha_reproducibility\20251112_2-148_002_alpha_reproducibility_2_K1.mps
Saved on :
	File : 20251112_2-148_006_gamma_reproducibility_2_K1_03_CVA_C02.mpr
	Directory : C:\Users\User\Documents\EC-Lab\Data\Yatsuzuka\20251112_2-148_alpha_reproducibility\
	Host : 192.109.209.127
Device : SP-150e (SN .003883)
Address : 192.109.209.128
EC-Lab for windows v11.52 (software)
Internet server v11.52 (firmware)
Command interpretor v11.50 (firmware)
Electrode material :
Initial state :
Electrolyte :
Comments :
Electrode surface area : 0.001 cm2
Characteristic mass : 0.001 g
Equivalent Weight : 0.000 g/eq.
Density : 0.000 g/cm3
Volume (V) : 0.001 cm3
Cycle Definition : Charge/Discharge alternance
Ei (V)              0.450
vs.                 Ref
ti (h:m:s)          0:00:10.0000
dti (s)             0.0000
dE/dt               5.000
dE/dt unit          mV/s
E1 (V)              0.700
vs.                 Ref
t1 (h:m:s)          0:00:0.0000
dt1 (s)             0.1000
Step percent        50
N                   10
E range min (V)     -1.000
E range max (V)     1.000
I Range             10 mA
I Range min         Unset
I Range max         Unset
I Range init        Unset
Bandwidth           5
E2 (V)              0.450
vs.                 Ref
t2 (h:m:s)          0:00:0.0000
dt2 (s)             0.1000
nc cycles           14
nr                  1
Reverse Scan        0
Ef (V)              0.000
vs.                 Eoc
tf (h:m:s)          0:00:0.0000
dtf (s)             0.1000

mode	ox/red	error	control changes	Ns changes	counter inc.	time/s	control/V	Ewe/V	<I>/mA	cycle number	(Q-Qo)/C	I Range	Ns	step time/s	P/W
2	1	0	1	0	0	232.741	0.450021	0.449687	0.00563072	1	0.0000000E+000	11	0	0.000000000000000E+000	2.53206e-06
2	1	0	1	0	0	245.881	0.515717	0.515245	0.00493937	1	5.96035e-05	11	0	13.0845	2.54498e-06
2	1	0	1	0	0	259.065	0.581639	0.581185	0.0113358	1	0.000160951	11	0	26.2689	6.58821e-06
2	1	0	1	0	0	272.25	0.647562	0.647113	0.0586608	1	0.000516941	11	0	39.4533	3.79601e-05
2	1	0	1	0	0	285.185	0.687763	0.687301	0.170909	1	0.00255829	11	0	52.3883	0.000117466
2	1	0	0	0	0	298.369	0.621842	0.62143	0.0138798	1	0.00338327	11	0	65.5726	8.62532e-06
2	1	0	0	0	0	311.553	0.55592	0.555455	0.00196405	1	0.00345221	11	0	78.757	1.09094e-06
2	1	0	0	0	0	324.738	0.489998	0.489545	0.000622922	1	0.00345889	11	0	0.000000000000000E+000	3.04949e-07
2	1	0	0	0	1	337.692	0.474816	0.474316	0.00291233	2	0.00347314	11	0	4.8942	1.38136e-06
2	1	0	0	0	1	350.876	0.540738	0.540267	0.00395022	2	0.00351858	11	0	18.0786	2.13417e-06
2	1	0	0	0	1	364.06	0.60666	0.606219	0.0104022	2	0.00359627	11	0	31.263	6.30599e-06
2	1	0	1	0	1	377.245	0.672581	0.672152	0.0895767	2	0.0040675	11	0	44.4473	6.02091e-05
2	1	0	1	0	1	390.17	0.662794	0.6624	0.0537982	2	0.00576201	11	0	57.3723	3.56359e-05
2	1	0	1	0	1	403.354	0.596871	0.596426	0.00414339	2	0.00601961	11	0	70.5567	2.47123e-06
2	0	0	1	0	1	416.538	0.530949	0.530496	0.000538999	2	0.00604143	11	0	83.7411	2.85937e-07
2	0	0	1	0	1	429.723	0.465027	0.464581	-0.000242818	2	0.00604211	11	0	0.000000000000000E+000	-1.12809e-07
2	0	0	1	0	0	442.677	0.499787	0.499347	0.00289552	3	0.00607141	11	0	9.9433	1.44587e-06
2	1	0	1	0	0	455.861	0.565709	0.565237	0.00439369	3	0.00611719	11	0	23.1277	2.48348e-06
2	1	0	0	0	0	469.045	0.63163	0.631216	0.0194277	3	0.00623347	11	0	36.312	1.2263e-05
2	1	0	0	0	0	482.23	0.697552	0.697086	0.191519	3	0.00722832	11	0	49.4964	0.000133505
2	1	0	1	0	0	495.155	0.637823	0.637413	0.0192426	3	0.0083067	11	0	62.4214	1.22655e-05
2	1	0	1	0	0	508.339	0.571901	0.571475	0.00193219	3	0.00839567	11	0	75.6058	1.1042e-06
2	1	0	1	0	0	521.524	0.505979	0.505564	0.000587234	3	0.00840314	11	0	0.000000000000000E+000	2.96885e-07
2	1	0	1	0	1	534.477	0.458835	0.458372	0.00323801	4	0.00840628	11	0	1.763	1.48421e-06
2	1	0	1	0	1	547.662	0.524757	0.524377	0.00267252	4	0.00844656	11	0	14.9474	1.40141e-06
2	1	0	1	0	1	560.846	0.590678	0.590208	0.00598381	4	0.00849887	11	0	28.1317	3.53169e-06
2	1	0	1	0	1	574.03	0.6566	0.656159	0.0429284	4	0.008726	11	0	41.3161	2.81678e-05
2	1	0	1	0	1	586.955	0.678774	0.678341	0.0903628	4	0.0102124	11	0	54.2411	6.12968e-05
2	1	0	1	0	1	600.14	0.612852	0.612405	0.00679345	4	0.0106379	11	0	67.4255	4.16034e-06
2	0	0	1	0	1	613.324	0.54693	0.546522	0.000351066	4	0.0106695	11	0	80.6099	1.91865e-07
2	0	0	1	0	1	626.509	0.481009	0.480567	-0.00047607	4	0.0106713	11	0	0.000000000000000E+000	-2.28784e-07
2	1	0	1	0	0	639.462	0.483806	0.483369	0.00295832	5	0.0106889	11	0	6.7471	1.42996e-06
2	1	0	1	0	0	652.647	0.549728	0.549265	0.0029722	5	0.0107292	11	0	19.9315	1.63252e-06
2	1	0	1	0	0	665.831	0.615649	0.61522	0.0102875	5	0.010801	11	0	33.1158	6.32905e-06
2	1	0	1	0	0	679.016	0.681571	0.681135	0.104918	5	0.0113246	11	0	46.3002	7.14636e-05
2	1	0	0	0	0	691.941	0.653804	0.653399	0.0342075	5	0.0127364	11	0	59.2252	2.23511e-05
2	1	0	0	0	0	705.125	0.587882	0.587426	0.00273197	5	0.01289	11	0	72.4096	1.60483e-06
2	1	0	0	0	0	718.309	0.52196	0.521455	0.000574284	5	0.0129021	11	0	0.000000000000000E+000	2.99463e-07
2	0	0	1	0	0	731.494	0.456039	0.455583	-0.000422938	5	0.0129016	11	0	0.1997	-1.92683e-07
2	0	0	0	0	1	744.448	0.508776	0.508299	0.00254956	6	0.0129355	11	0	11.7412	1.29594e-06
2	1	0	1	0	1	757.632	0.574697	0.574253	0.00413985	6	0.0129791	11	0	24.9255	2.37732e-06
2	1	0	1	0	1	770.816	0.640619	0.640232	0.0222887	6	0.0131062	11	0	38.1099	1.427e-05
2	1	0	1	0	1	783.741	0.694755	0.694312	0.164564	6	0.014287	11	0	51.0349	0.000114258
2	1	0	1	0	1	796.926	0.628833	0.628407	0.0120655	6	0.0150773	11	0	64.2193	7.58206e-06
2	1	0	1	0	1	810.11	0.562911	0.562436	0.0014654	6	0.015131	11	0	77.4037	8.24192e-07
2	1	0	0	0	1	823.294	0.49699	0.496552	9.56232e-05	6	0.0151353	11	0	0.000000000000000E+000	4.74819e-08
2	1	0	1	0	0	836.248	0.467825	0.467388	0.0023593	7	0.0151434	11	0	3.4959	1.10271e-06
2	1	0	0	0	0	849.433	0.533746	0.533299	0.00290994	7	0.0151817	11	0	16.6802	1.55187e-06
2	1	0	0	0	0	862.617	0.599668	0.5992	0.00625493	7	0.0152341	11	0	29.8646	3.74795e-06
2	1	0	0	0	0	875.801	0.66559	0.665135	0.0580626	7	0.0155196	11	0	43.049	3.86195e-05
2	1	0	1	0	0	888.726	0.669785	0.669354	0.0657745	7	0.0170745	11	0	55.974	4.40264e-05
2	1	0	1	0	0	901.911	0.603863	0.603418	0.00446155	7	0.0173702	11	0	69.1584	2.69218e-06
2	1	0	1	0	0	915.095	0.537942	0.537531	0.000915737	7	0.0173898	11	0	82.3427	4.92237e-07
2	1	0	1	0	0	928.279	0.472019	0.471574	0.000429759	7	0.0173907	11	0	0.000000000000000E+000	2.02663e-07
2	1	0	1	0	1	941.233	0.492794	0.492312	0.00231689	8	0.0174143	11	0	8.5449	1.14063e-06
2	1	0	1	0	1	954.418	0.558716	0.558315	0.00302023	8	0.0174543	11	0	21.7293	1.68624e-06
2	1	0	1	0	1	967.602	0.624638	0.624187	0.0124485	8	0.0175336	11	0	34.9137	7.77021e-06
2	1	0	1	0	1	980.786	0.690561	0.69014	0.152304	8	0.0182747	11	0	48.0981	0.000105111
2	1	0	1	0	1	993.711	0.644814	0.64438	0.0243384	8	0.0195946	11	0	61.0231	1.56832e-05
2	1	0	1	0	1	1006.9	0.578892	0.578436	0.0020084	8	0.0196961	11	0	74.2075	1.16173e-06
[...]
2	1	0	0	0	1	1216.87	0.528952	0.528527	0.000248383	10	0.0245657	11	0	0.000000000000000E+000	1.31277e-07
2	1	0	0	0	1	1230.05	0.46303	0.462553	-0.000124171	10	0.0245666	11	0	0.000000000000000E+000	-5.74356e-08
2	1	0	0	0	0	1243	0.501784	0.501335	0.00258767	11	0.0245956	11	0	10.3428	1.29729e-06
2	1	0	0	0	0	1256.19	0.567706	0.567224	0.00306759	11	0.0246359	11	0	23.5272	1.74001e-06
2	1	0	0	0	0	1269.37	0.633628	0.633199	0.0167385	11	0.0247314	11	0	36.7116	1.05988e-05
2	1	0	1	0	0	1282.56	0.699549	0.699104	0.235044	11	0.0258899	11	0	49.8959	0.00016432
2	1	0	1	0	0	1295.48	0.635826	0.635376	0.0167706	11	0.0270759	11	0	62.8209	1.06556e-05
2	0	0	1	0	0	1308.67	0.569903	0.56947	0.000885364	11	0.0271452	11	0	76.0053	5.04188e-07
2	1	0	1	0	0	1321.85	0.503981	0.503548	0.000654115	11	0.0271513	11	0	0.1998	3.29378e-07
2	1	0	1	0	1	1334.8	0.460832	0.460419	0.00282556	12	0.027157	11	0	2.0975	1.30094e-06
2	1	0	1	0	1	1347.99	0.526755	0.526285	0.00298156	12	0.0271954	11	0	15.2819	1.56915e-06
2	1	0	1	0	1	1361.17	0.592676	0.59219	0.00458308	12	0.0272424	11	0	28.4663	2.71405e-06
2	1	0	0	0	1	1374.36	0.658598	0.658224	0.0512474	12	0.0274725	11	0	41.6506	3.37322e-05
2	1	0	1	0	1	1387.28	0.676776	0.67637	0.110708	12	0.0293489	11	0	54.5757	7.48799e-05
2	1	0	1	0	1	1400.47	0.610855	0.610367	0.00544875	12	0.029831	11	0	67.76	3.32574e-06
2	1	0	1	0	1	1413.65	0.544933	0.544539	0.000961407	12	0.0298543	11	0	80.9444	5.23524e-07
2	1	0	1	0	1	1426.84	0.479011	0.478571	0.000515564	12	0.0298566	11	0	0.000000000000000E+000	2.46734e-07
2	1	0	1	0	0	1439.79	0.485803	0.485369	0.00274529	13	0.0298758	11	0	7.1466	1.33248e-06
2	0	0	1	0	0	1452.97	0.551725	0.551239	0.00304941	13	0.0299138	11	0	20.331	1.68096e-06
2	1	0	1	0	0	1466.16	0.617647	0.617196	0.00927568	13	0.0299774	11	0	33.5154	5.72491e-06
2	1	0	1	0	0	1479.34	0.683568	0.683086	0.148646	13	0.0306516	11	0	46.6997	0.000101538
2	1	0	1	0	0	1492.27	0.651807	0.651339	0.0406728	13	0.0325208	11	0	59.6247	2.64918e-05
2	1	0	1	0	0	1505.45	0.585884	0.585442	0.00228144	13	0.0326754	11	0	72.8091	1.33565e-06
2	0	0	1	0	0	1518.64	0.519962	0.519513	7.54237e-06	13	0.0326843	11	0	0.000000000000000E+000	3.91836e-09
2	0	0	1	0	0	1531.82	0.45404	0.453579	-0.000470629	13	0.0326838	11	0	0.1998	-2.13467e-07
2	1	0	1	0	1	1544.78	0.510773	0.510324	0.00234882	14	0.0327176	11	0	12.1407	1.19866e-06
2	1	0	1	0	1	1557.96	0.576696	0.576249	0.00327012	14	0.0327586	11	0	25.3251	1.8844e-06
2	1	0	1	0	1	1571.14	0.642617	0.642204	0.0261696	14	0.0328858	11	0	38.5094	1.68063e-05
2	1	0	0	0	1	1584.07	0.692758	0.692325	0.216088	14	0.0345632	11	0	51.4344	0.000149603
2	1	0	0	0	1	1597.25	0.626836	0.6264	0.0113852	14	0.0356088	11	0	64.6188	7.13167e-06
2	1	0	0	0	1	1610.44	0.560914	0.560498	0.00123654	14	0.0356544	11	0	77.8032	6.93076e-07
2	1	0	0	0	1	1623.62	0.494992	0.494514	0.000440509	14	0.0356588	11	0	0.000000000000000E+000	2.17838e-07
2	1	0	0	0	0	1636.58	0.469822	0.469403	0.0022567	15	0.0356694	11	0	3.9504	1.0593e-06
2	1	0	0	0	0	1649.76	0.535744	0.535309	0.00303057	15	0.035707	11	0	17.1348	1.62229e-06
2	1	0	1	0	0	1662.94	0.601665	0.601229	0.005775	15	0.0357566	11	0	30.3191	3.4721e-06
2	1	0	1	0	0	1676.13	0.667587	0.667119	0.0870399	15	0.0361232	11	0	43.5035	5.8066e-05
2	1	0	1	0	0	1689.05	0.667787	0.667355	0.0922036	15	0.038389	11	0	56.4285	6.15326e-05
2	1	0	1	0	0	1702.24	0.601865	0.601423	0.00384494	15	0.0387597	11	0	69.6129	2.31243e-06
2	0	0	1	0	0	1715.42	0.535943	0.535487	0.000141991	15	0.0387761	11	0	82.7973	7.60342e-08
2	1	0	0	0	0	1728.61	0.470022	0.469565	-0.000244942	15	0.038778	11	0	0.000000000000000E+000	-1.15016e-07
2	1	0	0	0	0	1732.61	0.450021	0.449439	0.000590464	15	0.0387775	11	0	0.2039	2.65377e-07

File: 20251112_2-148_006_gamma_reproducibility_2_K2_01_CVA_C02.mpt
EC-Lab ASCII FILE
Nb header lines : 66

Cyclic Voltammetry Advanced

Run on channel : 2 (SN 69290)
User :
CE vs. WE compliance from -10 V to 10 V
Electrode connection : standard
Potential control : Ewe
Ewe ctrl range : min = -1.00 V, max = 1.00 V
Safety Limits :
	Do not start on E overload
Acquisition started on : 11/12/2025 20:23:02.181
Loaded Setting File :  C:\Users\User\Documents\EC-Lab\Data\Yatsuzuka\20251112_2-148_alpha_reproducibility\20251112_2-148_002_alpha_reproducibility_2_K1.mps
Saved on :
	File : 20251112_2-148_006_gamma_reproducibility_2_K2_r_01_CVA_C02.mpr
	Directory : C:\Users\User\Documents\EC-Lab\Data\Yatsuzuka\20251112_2-148_alpha_reproducibility\
	Host : 192.109.209.127
Device : SP-150e (SN .003883)
Address : 192.109.209.128
EC-Lab for windows v11.52 (software)
Internet server v11.52 (firmware)
Command interpretor v11.50 (firmware)
Electrode material :
Initial state :
Electrolyte :
Comments :
Electrode surface area : 0.001 cm2
Characteristic mass : 0.001 g
Equivalent Weight : 0.000 g/eq.
Density : 0.000 g/cm3
Volume (V) : 0.001 cm3
Cycle Definition : Charge/Discharge alternance
Ei (V)              0.350
vs.                 Ref
ti (h:m:s)          0:00:10.0000
dti (s)             0.0000
dE/dt               10.000
dE/dt unit          mV/s
E1 (V)              0.450
vs.                 Ref
t1 (h:m:s)          0:00:0.0000
dt1 (s)             0.1000
Step percent        50
N                   10
E range min (V)     -1.000
E range max (V)     1.000
I Range             Auto
I Range min         Unset
I Range max         Unset
I Range init        Unset
Bandwidth           5
E2 (V)              0.350
vs.                 Ref
t2 (h:m:s)          0:00:0.0000
dt2 (s)             0.1000
nc cycles           9
nr                  1
Reverse Scan        0
Ef (V)              0.000
vs.                 Eoc
tf (h:m:s)          0:00:0.0000
dtf (s)             0.1000

mode	ox/red	error	control changes	Ns changes	counter inc.	time/s	control/V	Ewe/V	<I>/mA	cycle number	(Q-Qo)/C	I Range	Ns	step time/s	P/W
2	1	0	0	0	0	0.000000000000000E+000	0.349989	0.349514	0.00293354	1	0.0000000E+000	13	0	0.000000000000000E+000	1.02532e-06
2	1	0	1	0	0	1.7755	0.367743	0.367291	0.0043872	1	7.58956e-06	13	0	1.748	1.61138e-06
2	1	0	1	0	0	3.5733	0.385722	0.385302	0.00395662	1	1.51557e-05	13	0	3.5458	1.52449e-06
2	1	0	1	0	0	5.3712	0.403699	0.403276	0.00319777	1	2.2418e-05	13	0	5.3437	1.28958e-06
2	1	0	1	0	0	7.1691	0.421679	0.42127	0.00445949	1	2.93709e-05	13	0	7.1416	1.87865e-06
2	1	0	1	0	0	8.9669	0.439658	0.439237	0.00478886	1	3.60933e-05	13	0	8.9394	2.10345e-06
2	0	0	1	0	0	10.6757	0.443253	0.442748	-0.00145999	1	3.83853e-05	13	0	0.6493	-6.46408e-07
2	0	0	1	0	0	12.4735	0.425275	0.424802	-0.00401871	1	3.34903e-05	13	0	2.4471	-1.70716e-06
2	0	0	1	0	0	14.2714	0.407296	0.406891	-0.00266028	1	2.79074e-05	13	0	4.245	-1.08244e-06
2	0	0	1	0	0	16.0693	0.389317	0.388873	-0.00429987	1	2.1742e-05	13	0	6.0429	-1.6721e-06
2	1	0	1	0	0	17.8671	0.371339	0.370905	-0.00247011	1	1.49918e-05	13	0	7.8407	-9.16175e-07
2	0	0	1	0	0	19.665	0.35336	0.352924	-0.00561247	1	7.6064e-06	13	0	9.6386	-1.98078e-06
2	1	0	1	0	1	21.3296	0.363298	0.362922	0.00358229	2	1.11819e-05	13	0	1.2985	1.30009e-06
2	1	0	1	0	1	23.1275	0.381277	0.38089	0.00274542	2	1.82488e-05	13	0	3.0964	1.0457e-06
2	0	0	1	0	1	24.9253	0.399256	0.398802	0.00352167	2	2.51011e-05	13	0	4.8942	1.40445e-06
2	1	0	1	0	1	26.7232	0.417233	0.416787	0.00453702	2	3.1682e-05	13	0	6.6921	1.89097e-06
2	1	0	1	0	1	28.5211	0.435213	0.434782	0.0028016	2	3.80258e-05	13	0	8.49	1.21808e-06
2	0	0	1	0	1	30.2248	0.447748	0.447269	-0.00346725	2	4.26276e-05	13	0	0.1998	-1.55079e-06
2	0	0	1	0	1	32.0227	0.429769	0.429277	-0.00283258	2	3.78514e-05	13	0	1.9977	-1.21596e-06
2	0	0	1	0	1	33.8205	0.411791	0.411344	-0.00198921	2	3.2327e-05	13	0	3.7955	-8.1825e-07
2	0	0	1	0	1	35.6184	0.393812	0.393374	-0.00272361	2	2.6272e-05	13	0	5.5934	-1.0714e-06
2	0	0	1	0	1	37.4163	0.375833	0.37538	-0.00274427	2	1.96683e-05	13	0	7.3913	-1.03014e-06
2	0	0	1	0	1	39.2141	0.357855	0.357385	-0.00318325	2	1.24697e-05	13	0	9.1891	-1.13764e-06
2	1	0	1	0	0	40.8787	0.358804	0.358336	0.0022918	3	1.22962e-05	13	0	0.849	8.21236e-07
2	1	0	1	0	0	42.6766	0.376782	0.376363	0.00366938	3	1.92881e-05	13	0	2.6469	1.38102e-06
2	1	0	1	0	0	44.4745	0.394761	0.394368	0.00515665	3	2.60712e-05	13	0	4.4448	2.03362e-06
2	1	0	1	0	0	46.2723	0.41274	0.412324	0.00406632	3	3.2572e-05	13	0	6.2426	1.67664e-06
2	1	0	1	0	0	48.0702	0.430717	0.430278	0.00260258	3	3.88258e-05	13	0	8.0405	1.11983e-06
2	0	0	1	0	0	49.8681	0.448697	0.448224	0.0021525	3	4.48614e-05	13	0	9.8384	9.64804e-07
2	0	0	1	0	0	51.5718	0.434264	0.433801	-0.00344069	3	4.13081e-05	13	0	1.5482	-1.49257e-06
2	0	0	1	0	0	53.3697	0.416285	0.415773	-0.00316865	3	3.59442e-05	13	0	3.3461	-1.31744e-06
2	0	0	1	0	0	55.1675	0.398307	0.397824	-0.00243588	3	3.0045e-05	13	0	5.1439	-9.69052e-07
2	0	0	1	0	0	56.9654	0.380328	0.379863	-0.00483083	3	2.36056e-05	13	0	6.9418	-1.83506e-06
2	0	0	1	0	0	58.7633	0.362349	0.361875	-0.00396264	3	1.65826e-05	13	0	8.7397	-1.43398e-06
2	0	0	1	0	1	60.4279	0.354309	0.353855	0.00230714	4	1.28364e-05	13	0	0.4271	8.16396e-07
2	1	0	1	0	1	62.2257	0.372288	0.371874	0.00459422	4	1.97432e-05	13	0	2.2249	1.70847e-06
2	1	0	1	0	1	64.0236	0.390266	0.389859	0.00460319	4	2.65208e-05	13	0	4.0228	1.7946e-06
2	1	0	1	0	1	65.8215	0.408245	0.407824	0.002995	4	3.30241e-05	13	0	5.8207	1.22143e-06
2	1	0	1	0	1	67.6193	0.426224	0.425791	0.00277256	4	3.92601e-05	13	0	7.6185	1.18053e-06
2	1	0	1	0	1	69.4173	0.444202	0.443755	0.00458341	4	4.52638e-05	13	0	9.4165	2.03391e-06
2	1	0	1	0	1	71.1209	0.438759	0.438296	-0.00254346	4	4.44237e-05	13	0	1.0987	-1.11479e-06
2	0	0	1	0	1	72.9188	0.42078	0.420314	-0.004011	4	3.92195e-05	13	0	2.8966	-1.68588e-06
2	0	0	1	0	1	74.7167	0.402801	0.402384	-0.0029463	4	3.34608e-05	13	0	4.6945	-1.18554e-06
2	0	0	1	0	1	76.5145	0.384823	0.384374	-0.00291872	4	2.71793e-05	13	0	6.4923	-1.12188e-06
2	0	0	1	0	1	78.3124	0.366844	0.366351	-0.0056472	4	2.03323e-05	13	0	8.2902	-2.06886e-06
2	0	0	1	0	0	79.9994	0.350039	0.349724	-0.000819777	5	1.33391e-05	13	0	9.9772	-2.86696e-07
2	1	0	1	0	0	81.7749	0.367793	0.367388	0.00339129	5	1.99251e-05	13	0	1.748	1.24592e-06
2	1	0	1	0	0	83.5727	0.385772	0.385326	0.00504044	5	2.67112e-05	13	0	3.5458	1.94221e-06
2	1	0	1	0	0	85.3706	0.40375	0.403357	0.00383455	5	3.3238e-05	13	0	5.3437	1.54669e-06
2	0	0	1	0	0	87.1685	0.421729	0.421309	0.00232119	5	3.94742e-05	13	0	7.1416	9.77939e-07
2	0	0	1	0	0	88.9663	0.439708	0.439295	0.00395624	5	4.54735e-05	13	0	8.9394	1.73796e-06
2	1	0	1	0	0	90.6701	0.443253	0.442792	-0.00147549	5	4.72722e-05	13	0	0.6493	-6.53334e-07
2	0	0	1	0	0	92.4679	0.425275	0.424832	-0.00404177	5	4.22565e-05	13	0	2.4471	-1.71707e-06
2	0	0	1	0	0	94.2658	0.407296	0.406849	-0.00372914	5	3.66487e-05	13	0	4.245	-1.5172e-06
2	0	0	1	0	0	96.0637	0.389317	0.388894	-0.00260883	5	3.05214e-05	13	0	6.0429	-1.01456e-06
2	0	0	1	0	0	97.8615	0.371339	0.370908	-0.00423499	5	2.38485e-05	13	0	7.8407	-1.57079e-06
2	0	0	1	0	0	99.6594	0.35336	0.352879	-0.00546396	5	1.6557e-05	13	0	9.6386	-1.92812e-06
2	1	0	1	0	1	101.324	0.363298	0.362885	0.00278361	6	1.99561e-05	13	0	1.2985	1.01013e-06
2	1	0	1	0	1	103.122	0.381277	0.38081	0.00329795	6	2.67444e-05	13	0	3.0964	1.25589e-06
2	1	0	1	0	1	104.92	0.399256	0.398813	0.00502408	6	3.32874e-05	13	0	4.8942	2.00367e-06
[...]
2	1	0	1	0	0	129.862	0.448697	0.448278	0.00426148	7	5.14002e-05	13	0	9.8384	1.91033e-06
2	0	0	1	0	0	131.566	0.434264	0.433779	-0.00387611	7	4.7837e-05	13	0	1.5756	-1.68137e-06
2	0	0	1	0	0	133.364	0.416285	0.415787	-0.00293045	7	4.25295e-05	13	0	3.3735	-1.21845e-06
2	0	0	1	0	0	135.162	0.398307	0.39785	-0.00214899	7	3.67081e-05	13	0	5.1713	-8.54975e-07
2	1	0	1	0	0	136.96	0.380328	0.379881	-0.00302317	7	3.03654e-05	13	0	6.9692	-1.14844e-06
2	1	0	1	0	0	138.758	0.362349	0.361851	-0.00455038	7	2.34369e-05	13	0	8.7671	-1.64656e-06
2	1	0	1	0	1	140.422	0.354309	0.353858	0.0049045	8	1.973e-05	13	0	0.4271	1.73549e-06
2	1	0	1	0	1	142.22	0.372288	0.371883	0.00325664	8	2.64717e-05	13	0	2.2249	1.21109e-06
2	1	0	1	0	1	144.018	0.390266	0.389875	0.00249899	8	3.30875e-05	13	0	4.0228	9.74295e-07
2	1	0	1	0	1	145.816	0.408245	0.407776	0.00292406	8	3.94191e-05	13	0	5.8207	1.19236e-06
2	1	0	1	0	1	147.614	0.426224	0.425779	0.00442022	8	4.54907e-05	13	0	7.6185	1.88204e-06
2	1	0	1	0	1	149.412	0.444202	0.443754	0.00423457	8	5.13319e-05	13	0	9.4165	1.87911e-06
2	0	0	1	0	1	151.115	0.438759	0.438264	-0.00313775	8	5.04329e-05	13	0	1.0987	-1.37516e-06
2	0	0	1	0	1	152.913	0.42078	0.4203	-0.00364799	8	4.52814e-05	13	0	2.8966	-1.53325e-06
2	0	0	1	0	1	154.711	0.402801	0.402324	-0.00301348	8	3.95993e-05	13	0	4.6945	-1.2124e-06
2	0	0	1	0	1	156.509	0.384823	0.384369	-0.00219203	8	3.3399e-05	13	0	6.4923	-8.42548e-07
2	0	0	1	0	1	158.307	0.366844	0.366392	-0.0030682	8	2.66365e-05	13	0	8.2902	-1.12416e-06
2	1	0	0	0	0	159.994	0.350039	0.349629	0.00143267	9	1.97753e-05	13	0	0.000000000000000E+000	5.00901e-07
2	1	0	1	0	0	161.769	0.367793	0.367414	0.00463343	9	2.61909e-05	13	0	1.7755	1.70239e-06
2	1	0	1	0	0	163.567	0.385772	0.385334	0.00245719	9	3.2835e-05	13	0	3.5733	9.4684e-07
2	1	0	1	0	0	165.365	0.40375	0.403317	0.00387732	9	3.92159e-05	13	0	5.3712	1.56379e-06
2	1	0	1	0	0	167.163	0.421729	0.421269	0.0043126	9	4.53123e-05	13	0	7.1691	1.81676e-06
2	1	0	1	0	0	168.961	0.439708	0.439296	0.00309945	9	5.11834e-05	13	0	8.9669	1.36158e-06
2	0	0	1	0	0	170.664	0.443253	0.442778	-0.00370851	9	5.2898e-05	13	0	0.6493	-1.64204e-06
2	0	0	1	0	0	172.462	0.425275	0.424784	-0.00402966	9	4.79223e-05	13	0	2.4471	-1.71173e-06
2	0	0	1	0	0	174.26	0.407296	0.406836	-0.00266066	9	4.23773e-05	13	0	4.245	-1.08245e-06
2	0	0	1	0	0	176.058	0.389317	0.388861	-0.0025553	9	3.63204e-05	13	0	6.0429	-9.93657e-07
2	1	0	1	0	0	177.856	0.371339	0.370835	-0.00450444	9	2.97293e-05	13	0	7.8407	-1.6704e-06
2	0	0	1	0	0	179.654	0.35336	0.352916	-0.00493934	9	2.25172e-05	13	0	9.6386	-1.74317e-06
2	1	0	1	0	1	181.318	0.363298	0.36289	0.00270699	10	2.58511e-05	13	0	1.2985	9.8234e-07
2	1	0	1	0	1	183.116	0.381277	0.380826	0.00295543	10	3.25309e-05	13	0	3.0964	1.1255e-06
2	1	0	1	0	1	184.914	0.399256	0.398847	0.00352099	10	3.89521e-05	13	0	4.8942	1.40433e-06
2	1	0	1	0	1	186.712	0.417233	0.416794	0.0025725	10	4.50919e-05	13	0	6.6921	1.0722e-06
2	1	0	1	0	1	188.51	0.435213	0.43473	0.00364682	10	5.09867e-05	13	0	8.49	1.58538e-06
2	1	0	1	0	1	190.214	0.447748	0.447262	-0.00109814	10	5.52263e-05	13	0	0.1998	-4.91154e-07
2	1	0	1	0	1	192.011	0.429769	0.42928	-0.00160213	10	5.04646e-05	13	0	1.9977	-6.87764e-07
2	1	0	1	0	1	193.809	0.411791	0.411252	-0.00277659	10	4.50379e-05	13	0	3.7955	-1.14188e-06
2	0	0	1	0	1	195.607	0.393812	0.393327	-0.00467508	10	3.91306e-05	13	0	5.5934	-1.83884e-06
2	0	0	1	0	1	197.405	0.375833	0.375389	-0.00371874	10	3.27e-05	13	0	7.3913	-1.39597e-06
2	0	0	1	0	1	199.203	0.357855	0.357454	-0.00286214	10	2.56702e-05	13	0	9.1891	-1.02308e-06
2	1	0	1	0	1	199.986	0.349989	0.349514	0.000572115	10	2.23784e-05	13	0	9.9722	1.99962e-07