Folder: SI_for_publications/ACS_Catal_2026/Figures_Na_K/main_figures/data/EC/20251112_2-148_alpha_reproducibility (part 2)

File: 20251112_2-148_001_alpha_reproducibility_1_K1_03_CVA_C01.mpt
EC-Lab ASCII FILE
Nb header lines : 66

Cyclic Voltammetry Advanced

Run on channel : 1 (SN 69187)
User :
CE vs. WE compliance from -10 V to 10 V
Electrode connection : standard
Potential control : Ewe
Ewe ctrl range : min = -1.00 V, max = 1.00 V
Safety Limits :
	Do not start on E overload
Acquisition started on : 11/12/2025 13:18:25.019
Loaded Setting File :  C:\Users\User\Documents\EC-Lab\Data\Yatsuzuka\20251030_2-147_gamma_reproducibility\20251030_2-147_001_gamma1_K_1.mps
Saved on :
	File : 20251112_2-148_001_alpha_reproducibility_1_K1_03_CVA_C01.mpr
	Directory : C:\Users\User\Documents\EC-Lab\Data\Yatsuzuka\20251112_2-148_alpha_reproducibility\
	Host : 192.109.209.127
Device : SP-150e (SN .003883)
Address : 192.109.209.128
EC-LAB for windows v11.52 (software)
Internet server v11.52 (firmware)
Command interpretor v11.50 (firmware)
Electrode material :
Initial state :
Electrolyte :
Comments :
Electrode surface area : 0.001 cm2
Characteristic mass : 0.001 g
Equivalent Weight : 0.000 g/eq.
Density : 0.000 g/cm3
Volume (V) : 0.001 cm3
Cycle Definition : Charge/Discharge alternance
Ei (V)              0.450
vs.                 Ref
ti (h:m:s)          0:00:10.0000
dti (s)             0.0000
dE/dt               5.000
dE/dt unit          mV/s
E1 (V)              0.700
vs.                 Ref
t1 (h:m:s)          0:00:0.0000
dt1 (s)             0.1000
Step percent        50
N                   10
E range min (V)     -1.000
E range max (V)     1.000
I Range             10 mA
I Range min         Unset
I Range max         Unset
I Range init        Unset
Bandwidth           5
E2 (V)              0.450
vs.                 Ref
t2 (h:m:s)          0:00:0.0000
dt2 (s)             0.1000
nc cycles           14
nr                  1
Reverse Scan        0
Ef (V)              0.000
vs.                 Eoc
tf (h:m:s)          0:00:0.0000
dtf (s)             0.1000

mode	ox/red	error	control changes	Ns changes	counter inc.	time/s	control/V	Ewe/V	<I>/mA	cycle number	(Q-Qo)/C	I Range	Ns	step time/s	Pwe/W	Rwe/Ohm
2	0	0	0	0	0	232.91	0.449961	0.449678	-0.0249983	1	0.0000000E+000	11	0	0.000000000000000E+000	-1.12412e-05	17988.3
2	1	0	1	0	0	246.846	0.519639	0.519449	0.0210709	1	0.000235886	11	0	13.8807	1.09453e-05	24652.4
2	1	0	0	0	0	260.827	0.589542	0.589304	0.0659489	1	0.000708918	11	0	27.8613	3.88639e-05	8935.76
2	1	0	1	0	0	274.807	0.659445	0.659223	0.72237	1	0.00425955	11	0	41.8419	0.000476203	912.583
2	1	0	1	0	0	288.57	0.671728	0.671514	0.817643	1	0.0244185	11	0	55.6051	0.000549058	821.28
2	1	0	0	0	0	302.551	0.601825	0.601635	0.0352661	1	0.0280957	11	0	69.5857	2.12173e-05	17059.8
2	0	0	1	0	0	316.532	0.531922	0.531741	-0.0113591	1	0.0281365	11	0	5.2927	-6.04011e-06	46811.9
2	0	0	0	0	0	330.512	0.462019	0.461709	-0.0135555	1	0.0279888	11	0	19.2733	-6.25868e-06	34060.7
2	0	0	1	0	1	344.35	0.507206	0.506934	0.012828	2	0.0281143	11	0	11.3842	6.50293e-06	39517.8
2	1	0	1	0	1	358.331	0.57711	0.576858	0.0287755	2	0.0283534	11	0	25.3649	1.65994e-05	20046.9
2	1	0	1	0	1	372.311	0.647013	0.646798	0.362273	2	0.0299864	11	0	39.3455	0.000234318	1785.39
2	1	0	1	0	1	386.065	0.684211	0.684037	1.13206	2	0.0469386	11	0	53.0986	0.000774368	604.243
2	1	0	1	0	1	400.045	0.614307	0.614078	0.0554468	2	0.0523511	11	0	67.0793	3.40487e-05	11075.1
2	0	0	1	0	1	414.026	0.544404	0.544202	-0.0105921	2	0.0524722	11	0	4.4938	-5.76424e-06	51378.1
2	0	0	1	0	1	428.006	0.474502	0.474296	-0.0157581	2	0.0523295	11	0	18.4744	-7.474e-06	30098.6
2	1	0	1	0	0	441.844	0.494724	0.494543	0.0128011	3	0.052385	11	0	8.8877	6.33072e-06	38632.7
2	1	0	1	0	0	455.825	0.564627	0.564409	0.0207615	3	0.0525891	11	0	22.8683	1.1718e-05	27185.4
2	1	0	1	0	0	469.806	0.63453	0.634358	0.190403	3	0.0534941	11	0	36.8489	0.000120784	3331.66
2	1	0	1	0	0	483.559	0.696693	0.696457	1.70452	3	0.0663909	11	0	50.6021	0.00118713	408.593
2	1	0	1	0	0	497.539	0.626791	0.626607	0.0826421	3	0.0742657	11	0	64.5827	5.17841e-05	7582.19
2	1	0	1	0	0	511.52	0.556888	0.556665	-0.00327366	3	0.0745239	11	0	2.2968	-1.82233e-06	170043
2	0	0	1	0	0	525.501	0.486985	0.48679	-0.0152859	3	0.0743915	11	0	16.2774	-7.441e-06	31845.8
2	1	0	0	0	1	539.339	0.482241	0.481951	0.0161015	4	0.0743837	11	0	6.3912	7.76015e-06	29932
2	1	0	1	0	1	553.319	0.552144	0.551902	0.015133	4	0.0745729	11	0	20.3718	8.35192e-06	36470.1
2	1	0	0	0	1	567.3	0.622047	0.621784	0.100065	4	0.0751088	11	0	34.3524	6.22189e-05	6213.8
2	1	0	1	0	1	581.281	0.69195	0.691703	1.56171	4	0.0833706	11	0	48.333	0.00108024	442.913
2	1	0	1	0	1	595.034	0.639273	0.639036	0.152949	4	0.0947026	11	0	62.0862	9.77399e-05	4178.1
2	1	0	0	0	1	609.014	0.56937	0.569175	-0.00145056	4	0.0952728	11	0	0.000000000000000E+000	-8.25623e-07	392383
2	1	0	1	0	1	622.995	0.499467	0.499195	-0.0101752	4	0.0951558	11	0	13.8807	-5.0794e-06	49060.1
2	0	0	0	0	0	636.833	0.469758	0.469555	0.00803271	5	0.0950874	11	0	3.8946	3.7718e-06	58455.3
2	1	0	1	0	0	650.814	0.539662	0.539405	0.017369	5	0.0952694	11	0	17.8753	9.36895e-06	31055.6
2	1	0	1	0	0	664.794	0.609565	0.609363	0.0569874	5	0.0956337	11	0	31.8559	3.4726e-05	10693
2	1	0	1	0	0	678.775	0.679468	0.679265	1.10555	5	0.100841	11	0	45.8365	0.000750959	614.416
2	1	0	1	0	0	692.528	0.651756	0.651584	0.26772	5	0.115459	11	0	59.5896	0.000174442	2433.82
2	1	0	1	0	0	706.509	0.581852	0.581615	0.00164964	5	0.116507	11	0	0.0999	9.59458e-07	352571
2	0	0	1	0	0	720.489	0.51195	0.511724	-0.0119418	5	0.116414	11	0	11.6838	-6.11092e-06	42851.4
2	1	0	1	0	1	734.327	0.457276	0.457057	0.014131	6	0.116287	11	0	1.3981	6.45868e-06	32344.3
2	0	0	1	0	1	748.308	0.527179	0.527009	0.0115111	6	0.116464	11	0	15.3787	6.06645e-06	45782.7
2	1	0	1	0	1	762.288	0.597082	0.596892	0.040666	6	0.116735	11	0	29.3593	2.42732e-05	14677.9
2	1	0	1	0	1	776.269	0.666985	0.666752	0.690851	6	0.119799	11	0	43.3399	0.000460627	965.117
2	1	0	1	0	1	790.022	0.664239	0.664022	0.442165	6	0.135315	11	0	57.0931	0.000293607	1501.75
2	1	0	1	0	1	804.003	0.594336	0.594103	0.011035	6	0.137173	11	0	71.0737	6.5559e-06	53838.2
2	1	0	1	0	1	817.983	0.524433	0.524237	-0.00611668	6	0.13712	11	0	8.7878	-3.20659e-06	85706.2
2	0	0	1	0	1	831.964	0.45453	0.454306	-0.0165601	6	0.136964	11	0	22.7684	-7.52335e-06	27433.8
2	1	0	0	0	0	845.802	0.514696	0.514424	0.016247	7	0.137114	11	0	12.8822	8.35783e-06	31662.8
2	0	0	1	0	0	859.783	0.584599	0.584405	0.021628	7	0.137334	11	0	26.8628	1.26395e-05	27020.7
2	1	0	0	0	0	873.763	0.654502	0.654232	0.382206	7	0.139022	11	0	40.8434	0.000250052	1711.72
2	1	0	1	0	0	887.516	0.676722	0.67653	0.65328	7	0.15314	11	0	54.5965	0.000441964	1035.59
2	1	0	1	0	0	901.497	0.606818	0.606647	0.0249714	7	0.156126	11	0	68.5772	1.51489e-05	24293.7
2	1	0	0	0	0	915.478	0.536915	0.536684	-0.00886028	7	0.156137	11	0	6.5909	-4.75517e-06	60571.9
2	0	0	1	0	0	929.458	0.467012	0.466787	-0.0102705	7	0.155988	11	0	20.5715	-4.79415e-06	45449.2
2	1	0	0	0	1	943.296	0.502213	0.501969	0.0152319	8	0.156074	11	0	10.3856	7.64596e-06	32955
2	1	0	1	0	1	957.277	0.572116	0.57192	0.0211004	8	0.15627	11	0	24.3662	1.20677e-05	27104.6
2	1	0	1	0	1	971.258	0.64202	0.641813	0.220338	8	0.157282	11	0	38.3469	0.000141416	2912.86
2	1	0	0	0	1	985.011	0.689204	0.688991	1.09657	8	0.170202	11	0	52.1	0.000755525	628.316
2	1	0	1	0	1	998.991	0.619301	0.619105	0.048097	8	0.175223	11	0	66.0806	2.97771e-05	12872
2	0	0	1	0	1	1012.97	0.549397	0.549151	-0.00875514	8	0.175333	11	0	4.7934	-4.80789e-06	62723.2
[...]
2	0	0	1	0	1	1207.96	0.574363	0.574162	-0.00339445	10	0.214037	11	0	0.000000000000000E+000	-1.94897e-06	169147
2	0	0	0	0	1	1221.94	0.50446	0.504202	-0.00776185	10	0.213928	11	0	13.0819	-3.91354e-06	64959.1
2	0	0	1	0	0	1235.78	0.464765	0.464533	0.00890328	11	0.213838	11	0	2.896	4.13586e-06	52175.5
2	1	0	0	0	0	1249.76	0.534668	0.534488	0.012063	11	0.214011	11	0	16.8766	6.44755e-06	44307.9
2	1	0	1	0	0	1263.74	0.604572	0.604342	0.0446914	11	0.214298	11	0	30.8573	2.70089e-05	13522.5
2	1	0	1	0	0	1277.72	0.674475	0.674237	0.805807	11	0.217993	11	0	44.8379	0.000543304	836.723
2	1	0	0	0	0	1291.47	0.656749	0.656509	0.292626	11	0.231146	11	0	58.591	0.000192112	2243.51
2	0	0	1	0	0	1305.45	0.586846	0.586656	0.000679221	11	0.232295	11	0	72.5716	3.98469e-07	863719
2	1	0	1	0	0	1319.44	0.516942	0.516734	-0.00714003	11	0.232212	11	0	11.0847	-3.68949e-06	72371.4
2	1	0	1	0	1	1333.27	0.452283	0.452052	0.0143137	12	0.232066	11	0	0.3995	6.47054e-06	31581.8
2	0	0	1	0	1	1347.25	0.522186	0.522001	0.00987651	12	0.232237	11	0	14.3801	5.15554e-06	52852.8
2	1	0	1	0	1	1361.23	0.592089	0.591846	0.027654	12	0.232465	11	0	28.3607	1.63669e-05	21401.8
2	1	0	1	0	1	1375.22	0.661992	0.661734	0.473171	12	0.234569	11	0	42.3413	0.000313113	1398.51
2	1	0	1	0	1	1388.97	0.669231	0.669039	0.454443	12	0.247834	11	0	56.0945	0.00030404	1472.22
2	1	0	1	0	1	1402.95	0.599329	0.599112	0.0099474	12	0.249774	11	0	70.0751	5.95961e-06	60228
2	0	0	1	0	1	1416.93	0.529426	0.529203	-0.00917693	12	0.249729	11	0	9.5867	-4.85645e-06	57666.7
2	0	0	1	0	1	1430.91	0.459523	0.459259	-0.0153901	12	0.249579	11	0	23.5673	-7.06804e-06	29841.2
2	1	0	1	0	0	1444.75	0.509702	0.509526	0.0140259	13	0.249699	11	0	11.8835	7.14658e-06	36327.4
2	1	0	0	0	0	1458.73	0.579606	0.579323	0.0212687	13	0.249897	11	0	25.8642	1.23214e-05	27238.3
2	1	0	1	0	0	1472.71	0.649509	0.649325	0.268639	13	0.251106	11	0	39.8448	0.000174434	2417.1
2	1	0	1	0	0	1486.46	0.681715	0.681523	0.776448	13	0.263783	11	0	53.5979	0.000529167	877.744
2	1	0	1	0	0	1500.44	0.611812	0.611643	0.0320524	13	0.267275	11	0	67.5785	1.96046e-05	19082.6
2	0	0	1	0	0	1514.42	0.541908	0.541701	-0.00767283	13	0.267303	11	0	6.8905	-4.15638e-06	70599.9
2	0	0	0	0	0	1528.4	0.472005	0.471792	-0.0145178	13	0.267162	11	0	20.8711	-6.84941e-06	32497.4
2	1	0	1	0	1	1542.24	0.49722	0.496999	0.014982	14	0.267221	11	0	9.387	7.44606e-06	33173
2	1	0	0	0	1	1556.22	0.567123	0.566894	0.018408	14	0.267401	11	0	23.3676	1.04354e-05	30796
2	1	0	1	0	1	1570.2	0.637026	0.636814	0.152628	14	0.268115	11	0	37.3482	9.71954e-05	4172.34
2	1	0	1	0	1	1583.96	0.694197	0.693957	1.23296	14	0.27851	11	0	51.1014	0.00085562	562.839
2	1	0	0	0	1	1597.94	0.624294	0.624077	0.052022	14	0.284029	11	0	65.082	3.24657e-05	11996.4
2	0	0	1	0	1	1611.92	0.554391	0.554193	-0.0079356	14	0.284165	11	0	3.9944	-4.39786e-06	69836.3
2	1	0	1	0	1	1625.9	0.484487	0.484297	-0.00766534	14	0.284033	11	0	17.9751	-3.7123e-06	63180.1
2	0	0	1	0	0	1639.74	0.484738	0.484528	0.00857296	15	0.284034	11	0	6.8905	4.15384e-06	56518.1
2	0	0	1	0	0	1653.72	0.554641	0.55442	0.011273	15	0.284207	11	0	20.8711	6.24999e-06	49181.1
2	1	0	1	0	0	1667.7	0.624544	0.624344	0.0841053	15	0.284663	11	0	34.8517	5.25107e-05	7423.36
2	1	0	1	0	0	1681.68	0.694447	0.694262	1.37018	15	0.291884	11	0	48.8323	0.000951264	506.694
2	1	0	1	0	0	1695.43	0.636777	0.636573	0.0995712	15	0.300335	11	0	62.5855	6.33843e-05	6393.14
2	1	0	1	0	0	1709.41	0.566874	0.566687	-0.00352569	15	0.300671	11	0	2.197	-1.99796e-06	160731
2	0	0	1	0	0	1723.39	0.496971	0.496744	-0.0120326	15	0.300551	11	0	16.1776	-5.97712e-06	41283.2
2	0	0	1	0	0	1732.78	0.450011	0.449754	-0.0338855	15	0.300444	11	0	25.5667	-1.52401e-05	13272.8

File: 20251112_2-148_001_alpha_reproducibility_1_K2_01_CVA_C01.mpt
EC-Lab ASCII FILE
Nb header lines : 66

Cyclic Voltammetry Advanced

Run on channel : 1 (SN 69187)
User :
CE vs. WE compliance from -10 V to 10 V
Electrode connection : standard
Potential control : Ewe
Ewe ctrl range : min = -1.00 V, max = 1.00 V
Safety Limits :
	Do not start on E overload
Acquisition started on : 11/12/2025 14:40:36.984
Loaded Setting File :  C:\Users\User\Documents\EC-Lab\Data\Yatsuzuka\20251030_2-147_gamma_reproducibility\20251030_2-147_001_gamma1_K_1.mps
Saved on :
	File : 20251112_2-148_001_alpha_reproducibility_1_K2_01_CVA_C01.mpr
	Directory : C:\Users\User\Documents\EC-Lab\Data\Yatsuzuka\20251112_2-148_alpha_reproducibility\
	Host : 192.109.209.127
Device : SP-150e (SN .003883)
Address : 192.109.209.128
EC-LAB for windows v11.52 (software)
Internet server v11.52 (firmware)
Command interpretor v11.50 (firmware)
Electrode material :
Initial state :
Electrolyte :
Comments :
Electrode surface area : 0.001 cm2
Characteristic mass : 0.001 g
Equivalent Weight : 0.000 g/eq.
Density : 0.000 g/cm3
Volume (V) : 0.001 cm3
Cycle Definition : Charge/Discharge alternance
Ei (V)              0.350
vs.                 Ref
ti (h:m:s)          0:00:10.0000
dti (s)             0.0000
dE/dt               10.000
dE/dt unit          mV/s
E1 (V)              0.450
vs.                 Ref
t1 (h:m:s)          0:00:0.0000
dt1 (s)             0.1000
Step percent        50
N                   10
E range min (V)     -1.000
E range max (V)     1.000
I Range             Auto
I Range min         Unset
I Range max         Unset
I Range init        Unset
Bandwidth           5
E2 (V)              0.350
vs.                 Ref
t2 (h:m:s)          0:00:0.0000
dt2 (s)             0.1000
nc cycles           9
nr                  1
Reverse Scan        0
Ef (V)              0.000
vs.                 Eoc
tf (h:m:s)          0:00:0.0000
dtf (s)             0.1000

mode	ox/red	error	control changes	Ns changes	counter inc.	time/s	control/V	Ewe/V	<I>/mA	cycle number	(Q-Qo)/C	I Range	Ns	step time/s	Pwe/W	Rwe/Ohm
2	1	0	1	0	0	0.000000000000000E+000	0.34995	0.349857	0.010297	1	0.0000000E+000	13	0	0.000000000000000E+000	3.60249e-06	33976.5
2	1	0	1	0	0	1.8748	0.368698	0.368437	0.0303658	1	5.87987e-05	13	0	1.8475	1.11879e-05	12133.3
2	1	0	1	0	0	3.7722	0.387673	0.387383	0.0279046	1	0.000116649	13	0	3.7449	1.08098e-05	13882.4
2	1	0	1	0	0	5.6695	0.406646	0.406481	0.0323515	1	0.000170754	13	0	5.6422	1.31503e-05	12564.5
2	1	0	1	0	0	7.5669	0.42562	0.425412	0.019031	1	0.000221448	13	0	7.5396	8.09602e-06	22353.6
2	1	0	1	0	0	9.4643	0.444593	0.444405	0.0321062	1	0.000269387	13	0	9.437	1.42681e-05	13841.7
2	0	0	1	0	0	11.3384	0.436654	0.436349	-0.0198148	1	0.000256055	13	0	1.2932	-8.64616e-06	22021.4
2	0	0	1	0	0	13.2358	0.41768	0.417396	-0.0296367	1	0.000211396	13	0	3.1906	-1.23702e-05	14083.7
2	0	0	1	0	0	15.1331	0.398707	0.398449	-0.0205693	1	0.000161949	13	0	5.0879	-8.19582e-06	19371
2	0	0	1	0	0	17.0305	0.379733	0.379439	-0.0375446	1	0.00010751	13	0	6.9853	-1.42459e-05	10106.3
2	0	0	1	0	0	18.9279	0.36076	0.36051	-0.0247988	1	4.72471e-05	13	0	8.8827	-8.94021e-06	14537.4
2	1	0	1	0	1	20.7929	0.357913	0.357647	0.0373562	2	3.19504e-05	13	0	0.709	1.33604e-05	9573.97
2	1	0	1	0	1	22.6903	0.376887	0.376641	0.0228005	2	9.0239e-05	13	0	2.6064	8.58759e-06	16519
2	1	0	1	0	1	24.5877	0.395861	0.395592	0.036449	2	0.000145539	13	0	4.5038	1.44189e-05	10853.3
2	1	0	1	0	1	26.485	0.414834	0.414636	0.0190186	2	0.000197489	13	0	6.4011	7.88578e-06	21801.6
2	1	0	1	0	1	28.3824	0.433809	0.433595	0.0327383	2	0.000246442	13	0	8.2985	1.41952e-05	13244.3
2	0	0	1	0	1	30.2865	0.44714	0.44685	-0.0264773	2	0.000281704	13	0	0.2597	-1.18314e-05	16876.7
2	0	0	1	0	1	32.1839	0.428166	0.427937	-0.0160339	2	0.00023988	13	0	2.1571	-6.86152e-06	26689.5
2	0	0	1	0	1	34.0812	0.409192	0.408952	-0.0338278	2	0.000193019	13	0	4.0544	-1.38339e-05	12089.2
2	0	0	1	0	1	35.9786	0.390218	0.389932	-0.02122	2	0.000141289	13	0	5.9518	-8.27437e-06	18375.7
2	0	0	1	0	1	37.8759	0.371245	0.370976	-0.0390874	2	8.41538e-05	13	0	7.8491	-1.45005e-05	9490.94
2	0	0	1	0	1	39.7733	0.352271	0.352013	-0.0281825	2	2.06827e-05	13	0	9.7465	-9.92062e-06	12490.5
2	1	0	1	0	0	41.5784	0.365802	0.365583	0.0266232	3	5.89263e-05	13	0	1.5479	9.73299e-06	13731.7
2	1	0	1	0	0	43.4758	0.384777	0.38452	0.0327157	3	0.000116224	13	0	3.4453	1.25799e-05	11753.4
2	1	0	1	0	0	45.3731	0.40375	0.403556	0.0270186	3	0.000170081	13	0	5.3426	1.09035e-05	14936.2
2	1	0	1	0	0	47.2705	0.422724	0.422501	0.0254061	3	0.00022075	13	0	7.24	1.07341e-05	16629.9
2	1	0	1	0	0	49.1679	0.441697	0.44144	0.0270678	3	0.000268594	13	0	9.1374	1.19488e-05	16308.7
2	0	0	1	0	0	50.9721	0.440249	0.439978	-0.0272472	3	0.000269937	13	0	0.8988	-1.19882e-05	16147.6
2	0	0	1	0	0	52.8695	0.421276	0.420987	-0.0174218	3	0.000225992	13	0	2.7962	-7.33434e-06	24164.4
2	0	0	1	0	0	54.7669	0.402302	0.402013	-0.0346243	3	0.000177151	13	0	4.6936	-1.39195e-05	11610.7
2	0	0	1	0	0	56.6642	0.383329	0.383049	-0.0222068	3	0.000123445	13	0	6.5909	-8.50628e-06	17249.2
2	0	0	1	0	0	58.5616	0.364354	0.364082	-0.0397786	3	6.40005e-05	13	0	8.4883	-1.44827e-05	9152.71
2	1	0	1	0	1	60.3867	0.353919	0.353714	0.0383668	4	2.42414e-05	13	0	0.3596	1.35709e-05	9219.28
2	1	0	1	0	1	62.284	0.372892	0.372611	0.0225439	4	8.27276e-05	13	0	2.2569	8.40009e-06	16528.3
2	1	0	1	0	1	64.1814	0.391867	0.391632	0.0355374	4	0.00013885	13	0	4.1543	1.39176e-05	11020.3
2	1	0	1	0	1	66.0787	0.41084	0.410661	0.0210489	4	0.000191498	13	0	6.0516	8.64397e-06	19509.9
2	1	0	1	0	1	67.9761	0.429814	0.4296	0.0304655	4	0.000241024	13	0	7.949	1.3088e-05	14101.2
2	1	0	1	0	1	69.8735	0.448787	0.448608	0.0210892	4	0.000288151	13	0	9.8464	9.4608e-06	21271.9
2	0	0	1	0	1	71.7776	0.43216	0.431897	-0.019756	4	0.000253678	13	0	1.6927	-8.53255e-06	21861.6
2	0	0	1	0	1	73.6749	0.413187	0.412953	-0.0270401	4	0.000207469	13	0	3.59	-1.11663e-05	15271.9
2	0	0	1	0	1	75.5723	0.394213	0.393914	-0.0273783	4	0.000156544	13	0	5.4874	-1.07847e-05	14387.8
2	0	0	1	0	1	77.4697	0.375239	0.374963	-0.0257198	4	0.000100491	13	0	7.3848	-9.64396e-06	14578.8
2	0	0	1	0	1	79.3671	0.356266	0.355961	-0.0434568	4	3.8304e-05	13	0	9.2822	-1.54689e-05	8191.15
2	1	0	1	0	0	81.2321	0.362407	0.362145	0.0229897	5	5.21097e-05	13	0	1.2084	8.32558e-06	15752.5
2	1	0	1	0	0	83.1295	0.381381	0.381111	0.0374006	5	0.000109991	13	0	3.1058	1.42538e-05	10190
2	1	0	1	0	0	85.0268	0.400354	0.400156	0.0233933	5	0.000164565	13	0	5.0031	9.36098e-06	17105.6
2	1	0	1	0	0	86.9242	0.419329	0.419027	0.0258846	5	0.000215762	13	0	6.9005	1.08463e-05	16188.3
2	1	0	1	0	0	88.8215	0.438302	0.438071	0.0293296	5	0.000264064	13	0	8.7978	1.28485e-05	14936.1
2	0	0	1	0	0	90.7257	0.442646	0.442398	-0.0275869	5	0.000278916	13	0	0.7091	-1.22044e-05	16036.5
2	0	0	1	0	0	92.623	0.423673	0.423422	-0.0170594	5	0.000235496	13	0	2.6064	-7.22333e-06	24820.5
2	0	0	1	0	0	94.5204	0.404698	0.40441	-0.0297013	5	0.00018715	13	0	4.5038	-1.20115e-05	13615.9
2	0	0	1	0	0	96.4177	0.385725	0.385434	-0.0321386	5	0.000134009	13	0	6.4011	-1.23873e-05	11992.9
2	0	0	1	0	0	98.3151	0.366751	0.366433	-0.0264192	5	7.52496e-05	13	0	8.2985	-9.68087e-06	13870
2	1	0	1	0	1	100.15	0.351623	0.351328	0.0324582	6	2.14401e-05	12	0	0.1299	1.14035e-05	10824
2	1	0	1	0	1	102.077	0.370895	0.370671	0.0248816	6	8.02725e-05	13	0	2.0572	9.22289e-06	14897.4
2	1	0	1	0	1	103.975	0.389869	0.389642	0.0353725	6	0.000136746	13	0	3.9546	1.37826e-05	11015.4
[...]
2	0	0	1	0	0	130.359	0.446241	0.446001	-0.0143085	7	0.000290238	13	0	0.2996	-6.3816e-06	31170.4
2	0	0	1	0	0	132.257	0.427267	0.42701	-0.0313171	7	0.000247875	13	0	2.197	-1.33727e-05	13635.1
2	0	0	1	0	0	134.154	0.408294	0.408047	-0.0185913	7	0.000200406	13	0	4.0944	-7.58612e-06	21948.2
2	0	0	1	0	0	136.051	0.38932	0.389033	-0.0369172	7	0.00014812	13	0	5.9918	-1.4362e-05	10538
2	0	0	1	0	0	137.949	0.370347	0.370078	-0.0245073	7	9.04807e-05	13	0	7.8891	-9.06962e-06	15100.7
2	0	0	1	0	0	139.846	0.351372	0.351145	-0.0423516	7	2.64824e-05	13	0	9.7865	-1.48716e-05	8291.18
2	1	0	1	0	1	141.671	0.366901	0.366647	0.0386769	8	7.14416e-05	13	0	1.6578	1.41808e-05	9479.75
2	1	0	1	0	1	143.569	0.385874	0.385609	0.0212258	8	0.000128671	13	0	3.5551	8.18488e-06	18167
2	1	0	1	0	1	145.466	0.404849	0.404603	0.0349791	8	0.000182369	13	0	5.4525	1.41527e-05	11567
2	1	0	1	0	1	147.363	0.423822	0.423587	0.0182313	8	0.00023285	13	0	7.3498	7.72256e-06	23234
2	1	0	1	0	1	149.261	0.442796	0.442566	0.0321392	8	0.000280642	13	0	9.2472	1.42237e-05	13770.3
2	0	0	1	0	1	151.165	0.438153	0.437902	-0.0296811	8	0.00027444	13	0	1.1584	-1.29974e-05	14753.6
2	0	0	1	0	1	153.062	0.419178	0.418896	-0.0168458	8	0.00022972	13	0	3.0558	-7.05662e-06	24866.5
2	0	0	1	0	1	154.959	0.400205	0.399921	-0.0356276	8	0.00018028	13	0	4.9531	-1.42482e-05	11225
2	0	0	1	0	1	156.857	0.381231	0.380944	-0.0220987	8	0.000125895	13	0	6.8505	-8.41838e-06	17238.3
2	0	0	1	0	1	158.754	0.362257	0.361972	-0.0416367	8	6.57059e-05	13	0	8.7479	-1.50713e-05	8693.58
2	1	0	1	0	0	160.619	0.356416	0.356138	0.0240703	9	4.07213e-05	13	0	0.5442	8.57235e-06	14795.8
2	1	0	1	0	0	162.517	0.375389	0.375158	0.0359057	9	9.92867e-05	13	0	2.4416	1.34703e-05	10448.4
2	1	0	1	0	0	164.414	0.394363	0.394142	0.0228793	9	0.00015502	13	0	4.339	9.0177e-06	17227
2	1	0	1	0	0	166.311	0.413336	0.413169	0.0326016	9	0.000207269	13	0	6.2363	1.347e-05	12673.3
2	1	0	1	0	0	168.209	0.432311	0.432077	0.0213689	9	0.000256435	13	0	8.1337	9.233e-06	20219.9
2	0	0	1	0	0	170.068	0.449087	0.448773	-0.0160953	9	0.000299223	13	0	0.000000000000000E+000	-7.22312e-06	27882.3
2	0	0	1	0	0	172.01	0.429664	0.429417	-0.0219791	9	0.000256889	13	0	1.9424	-9.4382e-06	19537.5
2	0	0	1	0	0	173.908	0.41069	0.410492	-0.0289635	9	0.000210038	13	0	3.8397	-1.18893e-05	14172.7
2	0	0	1	0	0	175.805	0.391716	0.391433	-0.0243196	9	0.000158389	13	0	5.7371	-9.51949e-06	16095.4
2	0	0	1	0	0	177.702	0.372743	0.372512	-0.0360336	9	0.00010145	13	0	7.6344	-1.3423e-05	10337.9
2	0	0	1	0	0	179.6	0.353769	0.353449	-0.0286683	9	3.83549e-05	13	0	9.5318	-1.01328e-05	12328.9
2	1	0	1	0	1	181.465	0.364904	0.36469	0.0383984	10	6.88398e-05	13	0	1.393	1.40035e-05	9497.52
2	1	0	1	0	1	183.362	0.383877	0.383609	0.0226937	10	0.000126402	13	0	3.2904	8.70551e-06	16903.7
2	1	0	1	0	1	185.259	0.402851	0.402616	0.0339411	10	0.000180472	13	0	5.1878	1.36652e-05	11862.2
2	1	0	1	0	1	187.157	0.421825	0.421563	0.0196809	10	0.00023128	13	0	7.0852	8.29674e-06	21419.9
2	1	0	1	0	1	189.054	0.440798	0.440581	0.0295765	10	0.000279337	13	0	8.9825	1.30308e-05	14896.3
2	0	0	1	0	1	190.958	0.440149	0.439879	-0.0239232	10	0.000282439	13	0	0.8938	-1.05233e-05	18387.1
2	0	0	1	0	1	192.856	0.421176	0.42093	-0.0226881	10	0.000238203	13	0	2.7912	-9.55009e-06	18552.9
2	0	0	1	0	1	194.753	0.402202	0.401925	-0.0282607	10	0.000189278	13	0	4.6886	-1.13587e-05	14222.1
2	0	0	1	0	1	196.65	0.383229	0.382975	-0.0299547	10	0.000135466	13	0	6.5859	-1.14719e-05	12785.1
2	0	0	1	0	1	198.548	0.364254	0.363928	-0.0320031	10	7.59282e-05	13	0	8.4833	-1.16468e-05	11371.6
2	0	0	0	0	1	199.971	0.35	0.349781	-0.0260971	10	2.68837e-05	13	0	9.9063	-9.12826e-06	13403.1