Folder: SI_for_publications/ACS_Catal_2026/Figures_Na_K/main_figures/data/EC/20251112_2-148_alpha_reproducibility (part 7)

File: 20251112_2-148_002_alpha_reproducibility_2_K1_01_CVA_C02.mpt
EC-Lab ASCII FILE
Nb header lines : 66

Cyclic Voltammetry Advanced

Run on channel : 2 (SN 69290)
User :
CE vs. WE compliance from -10 V to 10 V
Electrode connection : standard
Potential control : Ewe
Ewe ctrl range : min = -1.00 V, max = 1.00 V
Safety Limits :
	Do not start on E overload
Acquisition started on : 11/12/2025 13:25:42.107
Loaded Setting File :  C:\Users\User\Documents\EC-Lab\Data\Yatsuzuka\20251112_2-148_alpha_reproducibility\20251112_2-148_002_alpha_reproducibility_2_K1.mps
Saved on :
	File : 20251112_2-148_002_alpha_reproducibility_2_K1_01_CVA_C02.mpr
	Directory : C:\Users\User\Documents\EC-Lab\Data\Yatsuzuka\20251112_2-148_alpha_reproducibility\
	Host : 192.109.209.127
Device : SP-150e (SN .003883)
Address : 192.109.209.128
EC-LAB for windows v11.52 (software)
Internet server v11.52 (firmware)
Command interpretor v11.50 (firmware)
Electrode material :
Initial state :
Electrolyte :
Comments :
Electrode surface area : 0.001 cm2
Characteristic mass : 0.001 g
Equivalent Weight : 0.000 g/eq.
Density : 0.000 g/cm3
Volume (V) : 0.001 cm3
Cycle Definition : Charge/Discharge alternance
Ei (V)              0.350
vs.                 Ref
ti (h:m:s)          0:00:10.0000
dti (s)             0.0000
dE/dt               10.000
dE/dt unit          mV/s
E1 (V)              0.450
vs.                 Ref
t1 (h:m:s)          0:00:0.0000
dt1 (s)             0.1000
Step percent        50
N                   10
E range min (V)     -1.000
E range max (V)     1.000
I Range             Auto
I Range min         Unset
I Range max         Unset
I Range init        Unset
Bandwidth           5
E2 (V)              0.350
vs.                 Ref
t2 (h:m:s)          0:00:0.0000
dt2 (s)             0.1000
nc cycles           9
nr                  1
Reverse Scan        0
Ef (V)              0.000
vs.                 Eoc
tf (h:m:s)          0:00:0.0000
dtf (s)             0.1000

mode	ox/red	error	control changes	Ns changes	counter inc.	time/s	control/V	Ewe/V	<I>/mA	cycle number	(Q-Qo)/C	I Range	Ns	step time/s	Pwe/W	Rwe/Ohm
2	0	0	0	0	0	0.000000000000000E+000	0.349989	0.349724	-0.0169996	1	0.0000000E+000	13	0	0.000000000000000E+000	-5.94518e-06	20572.5
2	1	0	1	0	0	1.8554	0.368542	0.368084	0.0367571	1	8.09323e-05	12	0	1.8279	1.35297e-05	10013.9
2	1	0	1	0	0	3.7032	0.38702	0.38658	0.0334616	1	0.00016025	12	0	3.6757	1.29356e-05	11552.9
2	1	0	1	0	0	5.6109	0.406098	0.405658	0.0437536	1	0.000239288	12	0	5.5834	1.7749e-05	9271.41
2	1	0	1	0	0	7.5636	0.425624	0.425208	0.0442243	1	0.000314994	13	0	7.5361	1.88045e-05	9614.82
2	1	0	1	0	0	9.5763	0.44575	0.44521	0.0368572	1	0.000391019	13	0	9.5488	1.64092e-05	12079.3
2	0	0	1	0	0	11.4947	0.435063	0.434546	-0.0304402	1	0.000374382	13	0	1.3884	-1.32277e-05	14275.4
2	0	0	1	0	0	13.4024	0.415986	0.415498	-0.041245	1	0.000318962	13	0	3.2961	-1.71372e-05	10073.9
2	0	0	1	0	0	15.4001	0.396009	0.395545	-0.0432191	1	0.000253415	12	0	5.2938	-1.70951e-05	9152.08
2	0	0	1	0	0	17.2479	0.377531	0.377063	-0.0479233	1	0.000185357	12	0	7.1416	-1.80701e-05	7868.06
2	0	0	1	0	0	19.2155	0.357855	0.357341	-0.0376425	1	0.000104117	12	0	9.1092	-1.34512e-05	9493.03
2	1	0	1	0	1	20.9301	0.359303	0.358848	0.0388432	2	0.00010449	12	0	0.849	1.39388e-05	9238.38
2	1	0	1	0	1	22.7779	0.377781	0.377304	0.039522	2	0.000179529	12	0	2.6968	1.49118e-05	9546.67
2	1	0	1	0	1	24.7006	0.397008	0.396621	0.0357106	2	0.000254103	12	0	4.6195	1.41636e-05	11106.5
2	1	0	1	0	1	26.5934	0.415936	0.41545	0.0386123	2	0.000323332	12	0	6.5123	1.60415e-05	10759.5
2	1	0	1	0	1	28.5011	0.435013	0.434576	0.0275675	2	0.000390001	12	0	8.42	1.19802e-05	15764.1
2	0	0	1	0	1	30.3247	0.446749	0.446284	-0.0218436	2	0.000435997	12	0	0.2498	-9.74843e-06	20430.9
2	0	0	1	0	1	32.3523	0.426473	0.426009	-0.0353722	2	0.00037949	12	0	2.2774	-1.50689e-05	12043.6
2	0	0	1	0	1	34.3199	0.406797	0.406358	-0.025397	2	0.000316496	12	0	4.245	-1.03203e-05	16000.2
2	0	0	1	0	1	36.2876	0.38712	0.386696	-0.0372759	2	0.000245564	12	0	6.2127	-1.44144e-05	10373.9
2	0	0	1	0	1	38.1354	0.368642	0.368219	-0.0453522	2	0.0001742	12	0	8.0605	-1.66996e-05	8119.1
2	0	0	1	0	1	39.9783	0.350214	0.349754	-0.0359417	2	9.61822e-05	12	0	9.9034	-1.25707e-05	9731.16
2	1	0	1	0	0	41.7277	0.367293	0.366825	0.0463039	3	0.000161346	12	0	1.648	1.69854e-05	7922.1
2	1	0	1	0	0	43.6355	0.386371	0.385888	0.0292506	3	0.000235892	12	0	3.5558	1.12874e-05	13192.5
2	1	0	1	0	0	45.4983	0.404999	0.404543	0.0404946	3	0.000305704	12	0	5.4186	1.63818e-05	9990.05
2	1	0	1	0	0	47.4509	0.424526	0.424021	0.0399828	3	0.000377275	12	0	7.3712	1.69536e-05	10605.1
2	1	0	1	0	0	49.4486	0.444502	0.444028	0.0419477	3	0.00044478	13	0	9.3689	1.8626e-05	10585.3
2	0	0	1	0	0	51.3371	0.436611	0.43614	-0.0304363	3	0.000431942	13	0	1.2286	-1.32745e-05	14329.6
2	0	0	1	0	0	53.4246	0.415736	0.415213	-0.0228503	3	0.000372801	13	0	3.3161	-9.48773e-06	18171
2	0	0	1	0	0	55.3623	0.396359	0.395938	-0.0425779	3	0.000307562	12	0	5.2538	-1.68582e-05	9299.13
2	0	0	1	0	0	57.2101	0.377881	0.377434	-0.0470155	3	0.00023952	12	0	7.1016	-1.77453e-05	8027.88
2	0	0	1	0	0	59.0579	0.359403	0.358905	-0.0341749	3	0.000164777	12	0	8.9494	-1.22655e-05	10502
2	1	0	1	0	1	60.8374	0.358404	0.357922	0.0458452	4	0.000153167	12	0	0.7591	1.6409e-05	7807.17
2	1	0	1	0	1	62.6852	0.376882	0.376432	0.0304106	4	0.000226552	12	0	2.6069	1.14475e-05	12378.3
2	1	0	1	0	1	64.548	0.39551	0.395003	0.0428746	4	0.000297564	12	0	4.4697	1.69356e-05	9212.99
2	1	0	1	0	1	66.5007	0.415037	0.414535	0.0282315	4	0.000368202	12	0	6.4224	1.17029e-05	14683.4
2	1	0	1	0	1	68.5283	0.435313	0.434835	0.0267984	4	0.000436353	12	0	8.45	1.16529e-05	16226.1
2	0	0	1	0	1	70.3519	0.44645	0.445974	-0.0153792	4	0.000477887	12	0	0.3297	-6.85872e-06	28998.6
2	0	0	1	0	1	72.2595	0.427372	0.426927	-0.0284264	4	0.0004264	12	0	2.2373	-1.2136e-05	15018.7
2	0	0	1	0	1	74.1523	0.408445	0.407993	-0.0292126	4	0.000367656	13	0	4.1301	-1.19185e-05	13966.3
2	0	0	1	0	1	76.1949	0.388019	0.387549	-0.0340139	4	0.000294615	12	0	6.1727	-1.31821e-05	11393.8
2	0	0	1	0	1	78.0427	0.369541	0.369087	-0.0449997	4	0.000223794	12	0	8.0205	-1.66088e-05	8202
2	0	0	1	0	1	79.8905	0.351063	0.350598	-0.0379772	4	0.000146094	12	0	9.8683	-1.33147e-05	9231.78
2	1	0	1	0	0	81.6251	0.366295	0.365831	0.0304363	5	0.000202757	12	0	1.5982	1.11346e-05	12019.6
2	1	0	1	0	0	83.4729	0.384773	0.384366	0.0289823	5	0.000274843	12	0	3.446	1.11398e-05	13262.1
2	1	0	1	0	0	85.3207	0.403251	0.402805	0.036426	5	0.000343349	12	0	5.2938	1.46726e-05	11058.2
2	1	0	1	0	0	87.2584	0.422628	0.422207	0.0333465	5	0.000411356	13	0	7.2315	1.40791e-05	12661.2
2	1	0	1	0	0	89.2111	0.442155	0.441727	0.0348375	5	0.000476512	12	0	9.1842	1.53887e-05	12679.7
2	0	0	1	0	0	91.1895	0.43806	0.437599	-0.0211156	5	0.000474589	12	0	1.0888	-9.24016e-06	20723.9
2	0	0	1	0	0	93.0972	0.418981	0.418501	-0.0291635	5	0.000418303	12	0	2.9965	-1.2205e-05	14350.2
2	0	0	1	0	0	95.1248	0.398705	0.398283	-0.0261034	5	0.000350254	12	0	5.0241	-1.03965e-05	15257.9
2	0	0	1	0	0	97.0325	0.379629	0.379139	-0.0326901	5	0.00028109	12	0	6.9318	-1.23941e-05	11598
2	0	0	1	0	0	98.8803	0.361151	0.360685	-0.0511721	5	0.000207444	12	0	8.7796	-1.8457e-05	7048.47
2	1	0	1	0	1	100.625	0.356307	0.355835	0.0291525	6	0.000181257	12	0	0.5994	1.03735e-05	12206
2	1	0	1	0	1	102.473	0.374785	0.374325	0.0438701	6	0.000253971	12	0	2.4472	1.64217e-05	8532.58
[...]
2	1	0	1	0	0	129.353	0.443603	0.443201	0.0406691	7	0.000510299	13	0	9.329	1.80246e-05	10897.7
2	0	0	1	0	0	131.237	0.43756	0.437043	-0.0303369	7	0.000499478	13	0	1.2036	-1.32586e-05	14406.3
2	0	0	1	0	0	133.219	0.417734	0.417272	-0.0207424	7	0.000443116	13	0	3.1862	-8.65523e-06	20116.8
2	0	0	1	0	0	135.202	0.397907	0.397416	-0.0315689	7	0.00037757	12	0	5.1689	-1.2546e-05	12588.8
2	0	0	1	0	0	137.05	0.379429	0.378964	-0.0297472	7	0.000310572	12	0	7.0167	-1.12731e-05	12739.5
2	0	0	1	0	0	139.017	0.359752	0.359274	-0.0403826	7	0.000231087	12	0	8.9843	-1.45084e-05	8896.77
2	1	0	1	0	1	140.772	0.357805	0.357341	0.0321667	8	0.000216622	12	0	0.7492	1.14945e-05	11109
2	1	0	1	0	1	142.62	0.376283	0.375797	0.0408056	8	0.000288935	12	0	2.597	1.53346e-05	9209.44
2	1	0	1	0	1	144.527	0.39536	0.394877	0.0322735	8	0.000360103	12	0	4.5047	1.27441e-05	12235.4
2	1	0	1	0	1	146.525	0.415337	0.414865	0.0287317	8	0.000430112	13	0	6.5024	1.19198e-05	14439.3
2	1	0	1	0	1	148.523	0.435313	0.43482	0.0379158	8	0.000497354	12	0	8.5	1.64865e-05	11468
2	0	0	1	0	1	150.376	0.44615	0.445664	-0.0195565	8	0.000537228	13	0	0.3446	-8.71562e-06	22788.6
2	0	0	1	0	1	152.284	0.427073	0.426637	-0.0349081	8	0.000486004	13	0	2.2523	-1.48931e-05	12221.7
2	0	0	1	0	1	154.192	0.407995	0.407487	-0.0245829	8	0.000426075	13	0	4.1601	-1.00172e-05	16576
2	0	0	1	0	1	156.189	0.388019	0.387566	-0.0320709	8	0.000355134	12	0	6.1577	-1.24296e-05	12084.7
2	0	0	1	0	1	158.037	0.369541	0.369079	-0.0464374	8	0.000284939	12	0	8.0055	-1.71391e-05	7947.88
2	0	0	1	0	1	159.945	0.350463	0.350014	-0.0526682	8	0.000204262	12	0	9.9133	-1.84346e-05	6645.63
2	1	0	1	0	0	161.669	0.366794	0.366352	0.0453555	9	0.000264879	12	0	1.5981	1.66161e-05	8077.35
2	1	0	1	0	0	163.577	0.385871	0.385364	0.0420547	9	0.000336763	12	0	3.5058	1.62064e-05	9163.39
2	1	0	1	0	0	165.5	0.405099	0.40468	0.0342298	9	0.000406621	12	0	5.4286	1.38521e-05	11822.5
2	1	0	1	0	0	167.452	0.424625	0.424124	0.0253618	9	0.000472718	12	0	7.3812	1.07565e-05	16722.9
2	1	0	1	0	0	169.48	0.444902	0.444425	0.0384894	9	0.000540607	12	0	9.4088	1.71057e-05	11546.7
2	0	0	1	0	0	171.413	0.435762	0.435295	-0.0356596	9	0.000519828	12	0	1.3833	-1.55224e-05	12206.9
2	0	0	1	0	0	173.501	0.414887	0.41442	-0.0229683	9	0.000458184	12	0	3.4709	-9.51854e-06	18043.1
2	0	0	1	0	0	175.474	0.39516	0.394647	-0.0260442	9	0.000392675	12	0	5.4435	-1.02783e-05	15153
2	0	0	1	0	0	177.441	0.375485	0.375044	-0.0482365	9	0.000319441	12	0	7.4112	-1.80908e-05	7775.1
2	0	0	1	0	0	179.409	0.355807	0.355394	-0.0355785	9	0.000237886	12	0	9.3789	-1.26444e-05	9989.03
2	1	0	1	0	1	181.119	0.361301	0.360846	0.0360242	10	0.000253732	12	0	1.0988	1.29992e-05	10016.8
2	1	0	1	0	1	183.026	0.380378	0.379892	0.0341039	10	0.000327498	12	0	3.0065	1.29558e-05	11139.3
2	1	0	1	0	1	185.084	0.400954	0.400495	0.0447152	10	0.000402392	13	0	5.064	1.79082e-05	8956.58
2	1	0	1	0	1	187.022	0.420331	0.419877	0.0412616	10	0.000468703	12	0	7.0018	1.73248e-05	10176
2	1	0	1	0	1	188.989	0.440007	0.439501	0.0249421	10	0.000533821	12	0	8.9694	1.09621e-05	17620.8
2	0	0	1	0	1	190.938	0.440507	0.44003	-0.0248266	10	0.000545231	13	0	0.9089	-1.09245e-05	17724.1
2	0	0	1	0	1	192.845	0.421429	0.420921	-0.0388869	10	0.000491621	13	0	2.8167	-1.63683e-05	10824.2
2	0	0	1	0	1	194.783	0.402051	0.401655	-0.0426897	10	0.000430012	12	0	4.7544	-1.71465e-05	9408.71
2	0	0	1	0	1	196.751	0.382376	0.381942	-0.0292949	10	0.00035937	12	0	6.7221	-1.11889e-05	13037.8
2	0	0	1	0	1	198.659	0.363297	0.362878	-0.0358442	10	0.000284142	12	0	8.6298	-1.30071e-05	10123.7
2	0	0	1	0	1	199.986	0.349989	0.349419	-0.0364175	10	0.000228174	12	0	9.9572	-1.2725e-05	9594.81

File: 20251112_2-148_002_alpha_reproducibility_2_K1_02_PEIS_C02.mpt
EC-Lab ASCII FILE
Nb header lines : 63

Potentio Electrochemical Impedance Spectroscopy

Run on channel : 2 (SN 69290)
User :
CE vs. WE compliance from -10 V to 10 V
Electrode connection : standard
Potential control : Ewe
Ewe ctrl range : min = -1.00 V, max = 1.00 V
Safety Limits :
	Do not start on E overload
Acquisition started on : 11/12/2025 13:25:42.107
Loaded Setting File :  C:\Users\User\Documents\EC-Lab\Data\Yatsuzuka\20251112_2-148_alpha_reproducibility\20251112_2-148_002_alpha_reproducibility_2_K1.mps
Saved on :
	File : 20251112_2-148_002_alpha_reproducibility_2_K1_02_PEIS_C02.mpr
	Directory : C:\Users\User\Documents\EC-Lab\Data\Yatsuzuka\20251112_2-148_alpha_reproducibility\
	Host : 192.109.209.127
Device : SP-150e (SN .003883)
Address : 192.109.209.128
EC-LAB for windows v11.52 (software)
Internet server v11.52 (firmware)
Command interpretor v11.50 (firmware)
Electrode material :
Initial state :
Electrolyte :
Comments :
Electrode surface area : 0.001 cm2
Characteristic mass : 0.001 g
Equivalent Weight : 0.000 g/eq.
Density : 0.000 g/cm3
Volume (V) : 0.001 cm3
Cycle Definition : Charge/Discharge alternance
Mode                Single sine
E (V)               0.4500
vs.                 Ref
tE (h:m:s)          0:00:0.0000
record              0
dI                  0.000
unit dI             mA
dt (s)              0.000
fi                  500.000
unit fi             kHz
ff                  1.000
unit ff             Hz
Nd                  6
Points              per decade
spacing             Logarithmic
Va (mV)             10.0
pw                  0.10
Na                  2
corr                0
E range min (V)     -1.000
E range max (V)     1.000
I Range             Auto
Bandwidth           5
nc cycles           0
goto Ns'            0
nr cycles           0
inc. cycle          0

freq/Hz	Re(Z)/Ohm	-Im(Z)/Ohm	|Z|/Ohm	Phase(Z)/deg	time/s	<Ewe>/V	<I>/mA	Cs/uF	Cp/uF	cycle number	I Range	|Ewe|/V	|I|/A	Ns	(Q-Qo)/mA.h	Re(Y)/Ohm-1	Im(Y)/Ohm-1	|Y|/Ohm-1	Phase(Y)/deg	Re(C)/nF	Im(C)/nF	|C|/nF	Phase(C)/deg	Re(M)	Im(M)	|M|	Phase(M)/deg	Re(Permittivity)	Im(Permittivity)	|Permittivity|	Phase(Permittivity)/deg	Re(Resistivity)/Ohm.cm	Im(Resistivity)/Ohm.cm	|Resistivity|/Ohm.cm	Phase(Resistivity)/deg	Re(Conductivity)/mS/cm	Im(Conductivity)/mS/cm	|Conductivity|/mS/cm	Phase(Conductivity)/deg	Tan(Delta)	Loss Angle(Delta)/deg	dq/mA.h	Pwe/W	Rwe/Ohm
500019	11.3699	-2.44144	11.6291	12.119	201.614	0.449781	0.0236145	-0.130373	-0.0057463	1	10	0.00387752	0.000333433	0	3.46081e-05	0.0840748	-0.0180532	0.0859913	-12.119	-5.7463	26.7609	27.3709	-102.119	0.0000000E+000	0.0000000E+000	0.0000000E+000	102.119	0.0000000E+000	0.0000000E+000	0.0000000E+000	-102.119	0.0000000E+000	0.0000000E+000	0.0000000E+000	12.119	0.0000000E+000	0.0000000E+000	0.0000000E+000	-12.119	4.65706	77.881	3.46081e-05	1.06214e-05	19046.8
231063	6.28822	-0.632944	6.31999	5.74778	202.322	0.449539	0.0235046	-1.08824	-0.010915	1	10	0.0100272	0.00158659	0	3.96168e-05	0.157432	-0.0158465	0.158228	-5.74778	-10.915	108.439	108.987	-95.7478	0.0000000E+000	0.0000000E+000	0.0000000E+000	95.7478	0.0000000E+000	0.0000000E+000	0.0000000E+000	-95.7478	0.0000000E+000	0.0000000E+000	0.0000000E+000	5.74778	0.0000000E+000	0.0000000E+000	0.0000000E+000	-5.74778	9.93487	84.2522	2.7924e-06	1.05662e-05	19125.6
106786	5.78475	-0.0399486	5.78489	0.395669	203.166	0.449538	0.0240397	-37.3081	-0.00177916	1	10	0.0109863	0.00189914	0	3.86074e-05	0.17286	-0.00119374	0.172864	-0.395669	-1.77916	257.632	257.638	-90.3957	0.0000000E+000	0.0000000E+000	0.0000000E+000	90.3957	0.0000000E+000	0.0000000E+000	0.0000000E+000	-90.3957	0.0000000E+000	0.0000000E+000	0.0000000E+000	0.395669	0.0000000E+000	0.0000000E+000	0.0000000E+000	-0.395669	144.805	89.6043	1.87664e-06	1.08067e-05	18699.8
49352.4	5.79263	0.0379962	5.79276	-0.375821	204.01	0.449542	0.0232696	84.8734	0.00365159	1	10	0.0106448	0.0018376	0	4.5164e-05	0.172626	0.00113232	0.172629	0.375821	3.65162	556.695	556.707	-89.6242	0.0000000E+000	0.0000000E+000	0.0000000E+000	89.6242	0.0000000E+000	0.0000000E+000	0.0000000E+000	-89.6242	0.0000000E+000	0.0000000E+000	0.0000000E+000	-0.375821	0.0000000E+000	0.0000000E+000	0.0000000E+000	0.375821	152.453	89.6242	2.4493e-06	1.04607e-05	19318.8
22806.6	5.81444	0.0502074	5.81465	-0.494735	204.854	0.449544	0.0228389	138.993	0.0103629	1	10	0.0104856	0.0018033	0	5.22625e-05	0.171973	0.00148498	0.171979	0.494735	10.3629	1200.11	1200.15	-89.5053	0.0000000E+000	0.0000000E+000	0.0000000E+000	89.5053	0.0000000E+000	0.0000000E+000	0.0000000E+000	-89.5053	0.0000000E+000	0.0000000E+000	0.0000000E+000	-0.494735	0.0000000E+000	0.0000000E+000	0.0000000E+000	0.494735	115.808	89.5053	1.67204e-06	1.02671e-05	19683.2
10540.4	5.82928	0.046868	5.82947	-0.460654	205.698	0.449549	0.0219197	322.172	0.0208248	1	10	0.0103322	0.0017724	0	5.99802e-05	0.171537	0.00137917	0.171542	0.460654	20.8249	2590.12	2590.21	-89.5393	0.0000000E+000	0.0000000E+000	0.0000000E+000	89.5393	0.0000000E+000	0.0000000E+000	0.0000000E+000	-89.5393	0.0000000E+000	0.0000000E+000	0.0000000E+000	-0.460654	0.0000000E+000	0.0000000E+000	0.0000000E+000	0.460654	124.377	89.5393	1.57745e-06	9.85399e-06	20508.9
4871.56	5.85144	0.0534068	5.85168	-0.522931	206.91	0.449536	0.0178719	611.724	0.050955	1	10	0.0101422	0.00173321	0	6.32134e-05	0.170884	0.00155968	0.170891	0.522931	50.9553	5582.82	5583.05	-89.4771	0.0000000E+000	0.0000000E+000	0.0000000E+000	89.4771	0.0000000E+000	0.0000000E+000	0.0000000E+000	-89.4771	0.0000000E+000	0.0000000E+000	0.0000000E+000	-0.522931	0.0000000E+000	0.0000000E+000	0.0000000E+000	0.522931	109.564	89.4771	2.07887e-06	8.03404e-06	25153.3
2250.72	5.86245	0.0641351	5.8628	-0.62679	208.062	0.449542	0.0176891	1102.56	0.131942	1	10	0.0101642	0.00173368	0	7.04086e-05	0.170557	0.00186589	0.170567	0.62679	131.943	12060.6	12061.3	-89.3732	0.0000000E+000	0.0000000E+000	0.0000000E+000	89.3732	0.0000000E+000	0.0000000E+000	0.0000000E+000	-89.3732	0.0000000E+000	0.0000000E+000	0.0000000E+000	-0.62679	0.0000000E+000	0.0000000E+000	0.0000000E+000	0.62679	91.4078	89.3732	6.58846e-06	7.95201e-06	25413.5
1040.33	5.87923	0.104801	5.88017	-1.02123	208.992	0.449542	0.0178774	1459.76	0.463697	1	10	0.0104319	0.00177408	0	7.37237e-05	0.170036	0.003031	0.170063	1.02123	463.697	26012.9	26017.1	-88.9788	0.0000000E+000	0.0000000E+000	0.0000000E+000	88.9788	0.0000000E+000	0.0000000E+000	0.0000000E+000	-88.9788	0.0000000E+000	0.0000000E+000	0.0000000E+000	-1.02123	0.0000000E+000	0.0000000E+000	0.0000000E+000	1.02123	56.099	88.9788	1.2972e-06	8.03666e-06	25145.7
480.769	5.89305	0.195899	5.8963	-1.90395	209.922	0.449534	0.0166972	1689.86	1.86534	1	10	0.01049	0.00177908	0	7.85753e-05	0.169504	0.00563474	0.169598	1.90395	1865.34	56113.1	56144.1	-88.096	0.0000000E+000	0.0000000E+000	0.0000000E+000	88.096	0.0000000E+000	0.0000000E+000	0.0000000E+000	-88.096	0.0000000E+000	0.0000000E+000	0.0000000E+000	-1.90395	0.0000000E+000	0.0000000E+000	0.0000000E+000	1.90395	30.082	88.096	2.66567e-06	7.50596e-06	26922.7
222.061	5.92863	0.385462	5.94114	-3.71997	210.846	0.449533	0.0159719	1859.37	7.8269	1	10	0.0105134	0.00176959	0	8.35255e-05	0.167963	0.0109205	0.168318	3.71997	7826.9	120382	120636	-86.28	0.0000000E+000	0.0000000E+000	0.0000000E+000	86.28	0.0000000E+000	0.0000000E+000	0.0000000E+000	-86.28	0.0000000E+000	0.0000000E+000	0.0000000E+000	-3.71997	0.0000000E+000	0.0000000E+000	0.0000000E+000	3.71997	15.3806	86.28	3.49311e-06	7.1799e-06	28145.2
102.667	5.98509	0.761254	6.03331	-7.24863	211.783	0.449534	0.0174542	2036.38	32.4195	1	10	0.0105179	0.0017433	0	8.60499e-05	0.164422	0.0209131	0.165747	7.24863	32419.5	254887	256940	-82.7514	0.0000000E+000	0.0000000E+000	0.0000000E+000	82.7514	0.0000000E+000	0.0000000E+000	0.0000000E+000	-82.7514	0.0000000E+000	0.0000000E+000	0.0000000E+000	-7.24863	0.0000000E+000	0.0000000E+000	0.0000000E+000	7.24863	7.86214	82.7514	1.10925e-06	7.84626e-06	25755.1
47.4443	6.08836	1.5262	6.27673	-14.0726	212.694	0.449528	0.0152951	2197.99	129.951	1	10	0.010538	0.0016789	0	8.81733e-05	0.154537	0.0387385	0.159319	14.0726	129951	518404	534444	-75.9274	0.0000000E+000	0.0000000E+000	0.0000000E+000	75.9274	0.0000000E+000	0.0000000E+000	0.0000000E+000	-75.9274	0.0000000E+000	0.0000000E+000	0.0000000E+000	-14.0726	0.0000000E+000	0.0000000E+000	0.0000000E+000	14.0726	3.98923	75.9274	4.93911e-07	6.87557e-06	29390.3
21.9144	6.22981	3.0852	6.9519	-26.3461	213.56	0.449519	0.0137848	2354	463.624	1	10	0.0105456	0.00151694	0	8.81042e-05	0.128904	0.0638376	0.143845	26.3461	463624	936174	1.04469e+06	-63.6539	0.0000000E+000	0.0000000E+000	0.0000000E+000	63.6539	0.0000000E+000	0.0000000E+000	0.0000000E+000	-63.6539	0.0000000E+000	0.0000000E+000	0.0000000E+000	-26.3461	0.0000000E+000	0.0000000E+000	0.0000000E+000	26.3461	2.01925	63.6539	-1.73685e-06	6.19654e-06	32609.8
10.1329	6.42358	6.43204	9.0903	-45.0377	214.487	0.44953	0.0158842	2441.94	1222.58	1	10	0.0105619	0.00116188	0	9.95635e-05	0.0777357	0.0778382	0.110007	45.0377	1.22258e+06	1.22097e+06	1.72785e+06	-44.9623	0.0000000E+000	0.0000000E+000	0.0000000E+000	44.9623	0.0000000E+000	0.0000000E+000	0.0000000E+000	-44.9623	0.0000000E+000	0.0000000E+000	0.0000000E+000	-45.0377	0.0000000E+000	0.0000000E+000	0.0000000E+000	45.0377	0.998684	44.9623	9.39995e-06	7.14045e-06	28300.4
4.68375	6.7876	13.3981	15.0193	-63.1327	215.537	0.449551	0.00248884	2536.2	2018.22	1	11	0.0105765	0.000704196	0	9.06295e-05	0.0300896	0.059394	0.066581	63.1327	2.01822e+06	1.02245e+06	2.26244e+06	-26.8673	0.0000000E+000	0.0000000E+000	0.0000000E+000	26.8673	0.0000000E+000	0.0000000E+000	0.0000000E+000	-26.8673	0.0000000E+000	0.0000000E+000	0.0000000E+000	-63.1327	0.0000000E+000	0.0000000E+000	0.0000000E+000	63.1327	0.506611	26.8673	-9.7939e-06	1.11886e-06	180627
2.16533	7.48582	28.3254	29.2979	-75.1964	217.25	0.449561	0.00207138	2594.89	2425.49	1	11	0.0105741	0.000360917	0	0.000101493	0.00872099	0.0329992	0.0341321	75.1964	2.42549e+06	641006	2.50876e+06	-14.8036	0.0000000E+000	0.0000000E+000	0.0000000E+000	14.8036	0.0000000E+000	0.0000000E+000	0.0000000E+000	-14.8036	0.0000000E+000	0.0000000E+000	0.0000000E+000	-75.1964	0.0000000E+000	0.0000000E+000	0.0000000E+000	75.1964	0.264279	14.8036	8.92998e-06	9.31212e-07	217035
1.00006	9.00574	59.9187	60.5917	-81.4525	221.59	0.449558	0.00117486	2656.01	2597.34	1	12	0.0105809	0.000174626	0	9.82274e-05	0.00245298	0.0163206	0.0165039	81.4525	2.59734e+06	390378	2.62651e+06	-8.54754	0.0000000E+000	0.0000000E+000	0.0000000E+000	8.54754	0.0000000E+000	0.0000000E+000	0.0000000E+000	-8.54754	0.0000000E+000	0.0000000E+000	0.0000000E+000	-81.4525	0.0000000E+000	0.0000000E+000	0.0000000E+000	81.4525	0.150299	8.54755	-5.2282e-06	5.2817e-07	382647