Folder: SI_for_publications/ACS_Catal_2026/Figures_Na_K/main_figures/data/EC/20251112_2-148_alpha_reproducibility (part 28)

File: 20251112_2-148_005_gamma_reproducibility_Na1_01_CVA_C01.mpt
EC-Lab ASCII FILE
Nb header lines : 66

Cyclic Voltammetry Advanced

Run on channel : 1 (SN 69187)
User :
CE vs. WE compliance from -10 V to 10 V
Electrode connection : standard
Potential control : Ewe
Ewe ctrl range : min = -1.00 V, max = 1.00 V
Safety Limits :
	Do not start on E overload
Acquisition started on : 11/12/2025 19:47:23.448
Loaded Setting File :  C:\Users\User\Documents\EC-Lab\Data\Yatsuzuka\20251030_2-147_gamma_reproducibility\20251030_2-147_001_gamma1_K_1.mps
Saved on :
	File : 20251112_2-148_005_gamma_reproducibility_Na1_01_CVA_C01.mpr
	Directory : C:\Users\User\Documents\EC-Lab\Data\Yatsuzuka\20251112_2-148_alpha_reproducibility\
	Host : 192.109.209.127
Device : SP-150e (SN .003883)
Address : 192.109.209.128
EC-Lab for windows v11.52 (software)
Internet server v11.52 (firmware)
Command interpretor v11.50 (firmware)
Electrode material :
Initial state :
Electrolyte :
Comments :
Electrode surface area : 0.001 cm2
Characteristic mass : 0.001 g
Equivalent Weight : 0.000 g/eq.
Density : 0.000 g/cm3
Volume (V) : 0.001 cm3
Cycle Definition : Charge/Discharge alternance
Ei (V)              0.350
vs.                 Ref
ti (h:m:s)          0:00:10.0000
dti (s)             0.0000
dE/dt               10.000
dE/dt unit          mV/s
E1 (V)              0.450
vs.                 Ref
t1 (h:m:s)          0:00:0.0000
dt1 (s)             0.1000
Step percent        50
N                   10
E range min (V)     -1.000
E range max (V)     1.000
I Range             Auto
I Range min         Unset
I Range max         Unset
I Range init        Unset
Bandwidth           5
E2 (V)              0.350
vs.                 Ref
t2 (h:m:s)          0:00:0.0000
dt2 (s)             0.1000
nc cycles           9
nr                  1
Reverse Scan        0
Ef (V)              0.000
vs.                 Eoc
tf (h:m:s)          0:00:0.0000
dtf (s)             0.1000

mode	ox/red	error	control changes	Ns changes	counter inc.	time/s	control/V	Ewe/V	<I>/mA	cycle number	(Q-Qo)/C	I Range	Ns	step time/s	P/W
2	1	0	1	0	0	0.000000000000000E+000	0.34995	0.349685	0.000290819	1	0.0000000E+000	13	0	0.000000000000000E+000	1.01695e-07
2	0	0	1	0	0	1.7749	0.3677	0.367477	0.00244933	1	3.41318e-06	13	0	1.7476	9.00073e-07
2	1	0	1	0	0	3.5725	0.385675	0.385412	0.00247026	1	6.75799e-06	13	0	3.5452	9.52067e-07
2	1	0	1	0	0	5.3699	0.40365	0.403348	0.00228587	1	9.93126e-06	13	0	5.3426	9.22002e-07
2	1	0	1	0	0	7.1675	0.421625	0.421435	0.00205154	1	1.29454e-05	13	0	7.1402	8.6459e-07
2	1	0	1	0	0	8.965	0.439601	0.439354	0.00180751	1	1.57981e-05	13	0	8.9377	7.94135e-07
2	0	0	1	0	0	10.6793	0.443245	0.442999	-0.0017459	1	1.66665e-05	13	0	0.6491	-7.73432e-07
2	0	0	1	0	0	12.4768	0.425271	0.424997	-0.00205637	1	1.44123e-05	13	0	2.4466	-8.73951e-07
2	0	0	1	0	0	14.2743	0.407295	0.406995	-0.00200518	1	1.18748e-05	13	0	4.2441	-8.161e-07
2	0	0	1	0	0	16.0719	0.38932	0.389045	-0.00193528	1	9.06946e-06	13	0	6.0417	-7.52913e-07
2	0	0	1	0	0	17.8693	0.371345	0.371095	-0.00124712	1	5.99673e-06	13	0	7.8391	-4.62799e-07
2	0	0	1	0	0	19.6669	0.35337	0.353094	-0.00152924	1	2.63308e-06	13	0	9.6367	-5.39965e-07
2	1	0	1	0	1	21.3321	0.363306	0.363094	0.00226324	2	4.31352e-06	13	0	1.2982	8.21768e-07
2	1	0	1	0	1	23.1297	0.381281	0.381019	0.00190786	2	7.52673e-06	13	0	3.0958	7.26933e-07
2	1	0	1	0	1	24.9271	0.399256	0.399053	0.00157915	2	1.05936e-05	13	0	4.8932	6.30166e-07
2	1	0	1	0	1	26.7247	0.417231	0.417037	0.0014621	2	1.35048e-05	13	0	6.6908	6.09751e-07
2	1	0	1	0	1	28.5222	0.435207	0.434931	0.00114169	2	1.62745e-05	13	0	8.4883	4.96554e-07
2	0	0	1	0	1	30.2265	0.447739	0.44751	-0.000669495	2	1.82353e-05	13	0	0.2271	-2.99606e-07
2	0	0	1	0	1	32.0241	0.429764	0.429499	-0.000866647	2	1.60373e-05	13	0	2.0247	-3.72224e-07
2	0	0	1	0	1	33.8215	0.411789	0.411584	-0.00206789	2	1.35486e-05	13	0	3.8221	-8.51109e-07
2	0	0	1	0	1	35.6191	0.393814	0.393502	-0.00178738	2	1.08293e-05	13	0	5.6197	-7.03337e-07
2	0	0	1	0	1	37.4166	0.375838	0.375564	-0.000985549	2	7.82625e-06	13	0	7.4172	-3.70137e-07
2	1	0	1	0	1	39.2141	0.357864	0.35761	-0.000984493	2	4.52706e-06	13	0	9.2147	-3.52065e-07
2	1	0	1	0	0	40.8794	0.358813	0.35857	0.00248516	3	4.50141e-06	13	0	0.8489	8.91103e-07
2	1	0	1	0	0	42.6769	0.376787	0.376559	0.00195676	3	7.71237e-06	13	0	2.6464	7.36835e-07
2	1	0	1	0	0	44.4744	0.394763	0.39452	0.00147914	3	1.07885e-05	13	0	4.4439	5.83551e-07
2	1	0	1	0	0	46.2719	0.412737	0.412548	0.00107755	3	1.37142e-05	13	0	6.2414	4.4454e-07
2	1	0	1	0	0	48.0694	0.430712	0.430538	0.00101918	3	1.64755e-05	13	0	8.0389	4.38797e-07
2	0	0	1	0	0	49.8669	0.448687	0.44848	0.00111235	3	1.91166e-05	13	0	9.8364	4.98867e-07
2	1	0	1	0	0	51.5713	0.434258	0.433998	-0.0014422	3	1.74517e-05	13	0	1.5479	-6.25912e-07
2	0	0	1	0	0	53.3688	0.416282	0.416036	-0.0021835	3	1.50297e-05	13	0	3.3454	-9.08417e-07
2	0	0	1	0	0	55.1663	0.398307	0.398007	-0.00229043	3	1.23705e-05	13	0	5.1429	-9.11608e-07
2	0	0	1	0	0	56.9638	0.380332	0.380027	-0.00188887	3	9.46096e-06	13	0	6.9404	-7.17819e-07
2	0	0	1	0	0	58.7613	0.362357	0.362116	-0.00114313	3	6.26817e-06	13	0	8.7379	-4.13947e-07
2	0	0	1	0	1	60.4266	0.354318	0.354094	0.00262827	4	4.59278e-06	13	0	0.427	9.30656e-07
2	1	0	1	0	1	62.2241	0.372294	0.37204	0.00257782	4	7.79167e-06	13	0	2.2245	9.59053e-07
2	1	0	1	0	1	64.0216	0.390268	0.390038	0.00209149	4	1.08828e-05	13	0	4.022	8.15758e-07
2	1	0	1	0	1	65.8191	0.408244	0.408032	0.00130826	4	1.38205e-05	13	0	5.8195	5.33812e-07
2	1	0	1	0	1	67.6167	0.426219	0.425969	0.000815063	4	1.66111e-05	13	0	7.6171	3.47192e-07
2	0	0	1	0	1	69.4141	0.444194	0.44401	0.000820273	4	1.92646e-05	13	0	9.4145	3.6421e-07
2	0	0	1	0	1	71.1185	0.438751	0.438498	-0.000814767	4	1.88033e-05	13	0	1.1259	-3.57274e-07
2	0	0	1	0	1	72.916	0.420776	0.420523	-0.000892111	4	1.6448e-05	13	0	2.9234	-3.75153e-07
2	1	0	1	0	1	74.7135	0.402801	0.402468	-0.000947823	4	1.38402e-05	13	0	4.7209	-3.81468e-07
2	1	0	1	0	1	76.511	0.384827	0.384553	-0.00104196	4	1.09884e-05	13	0	6.5184	-4.0069e-07
2	1	0	1	0	1	78.3085	0.366851	0.36655	-0.00165346	4	7.86262e-06	13	0	8.3159	-6.06076e-07
2	0	0	0	0	0	79.9962	0.35005	0.349704	-0.00196333	5	4.66423e-06	13	0	10.0036	-6.86587e-07
2	1	0	1	0	0	81.7713	0.3678	0.367511	0.00143493	5	7.78235e-06	13	0	1.7476	5.27353e-07
2	1	0	1	0	0	83.5689	0.385775	0.385517	0.001391	5	1.08977e-05	13	0	3.5452	5.36252e-07
2	1	0	1	0	0	85.3663	0.40375	0.403511	0.00137909	5	1.38541e-05	13	0	5.3426	5.5648e-07
2	1	0	1	0	0	87.1639	0.421725	0.421514	0.00143676	5	1.66615e-05	13	0	7.1402	6.05614e-07
2	1	0	1	0	0	88.9613	0.4397	0.439496	0.00155529	5	1.9329e-05	13	0	8.9376	6.83544e-07
2	0	0	1	0	0	90.6657	0.443245	0.442959	-0.00126642	5	2.00803e-05	13	0	0.6491	-5.60971e-07
2	0	0	1	0	0	92.4632	0.425271	0.425038	-0.00135899	5	1.78059e-05	13	0	2.4466	-5.77622e-07
2	0	0	1	0	0	94.2607	0.407295	0.407035	-0.00122457	5	1.5274e-05	13	0	4.2441	-4.98443e-07
2	0	0	1	0	0	96.0583	0.38932	0.389043	-0.00109219	5	1.2488e-05	13	0	6.0417	-4.2491e-07
2	0	0	1	0	0	97.8557	0.371345	0.371104	-0.00120896	5	9.44989e-06	13	0	7.8391	-4.48651e-07
2	0	0	1	0	0	99.6533	0.35337	0.353122	-0.00177433	5	6.12901e-06	13	0	9.6367	-6.26553e-07
2	0	0	1	0	1	101.318	0.363306	0.363067	0.0015659	6	7.77045e-06	13	0	1.3307	5.68528e-07
2	0	0	1	0	1	103.116	0.381281	0.381049	0.000964601	6	1.09084e-05	13	0	3.1283	3.6756e-07
2	1	0	1	0	1	104.913	0.399256	0.399051	0.000859629	6	1.38954e-05	13	0	4.9257	3.43036e-07
[...]
2	1	0	1	0	0	129.853	0.448687	0.448438	0.00148958	7	2.2044e-05	13	0	9.8689	6.67984e-07
2	1	0	1	0	0	131.558	0.434258	0.434016	-0.00100132	7	2.04231e-05	13	0	1.5479	-4.34588e-07
2	0	0	1	0	0	133.355	0.416282	0.416016	-0.000990462	7	1.80198e-05	13	0	3.3454	-4.12048e-07
2	0	0	1	0	0	135.153	0.398307	0.397978	-0.00121471	7	1.53792e-05	13	0	5.1429	-4.8343e-07
2	0	0	1	0	0	136.95	0.380332	0.380073	-0.00164718	7	1.24921e-05	13	0	6.9404	-6.26049e-07
2	0	0	1	0	0	138.748	0.362357	0.362071	-0.00172061	7	9.32877e-06	13	0	8.7379	-6.22983e-07
2	1	0	1	0	1	140.413	0.354318	0.354113	0.00175727	8	7.68365e-06	13	0	0.427	6.22271e-07
2	0	0	1	0	1	142.21	0.372294	0.37206	0.00178135	8	1.08503e-05	13	0	2.2245	6.62766e-07
2	0	0	1	0	1	144.008	0.390268	0.389984	0.00149137	8	1.39e-05	13	0	4.022	5.8161e-07
2	0	0	1	0	1	145.805	0.408244	0.408024	0.00131827	8	1.67914e-05	13	0	5.8195	5.37886e-07
2	0	0	1	0	1	147.603	0.426219	0.425981	0.00135705	8	1.95232e-05	13	0	7.6171	5.78079e-07
2	0	0	1	0	1	149.4	0.444194	0.443946	0.00168837	8	2.21206e-05	13	0	9.4145	7.49545e-07
2	1	0	1	0	1	151.105	0.438751	0.438458	-0.0017021	8	2.16508e-05	13	0	1.0985	-7.46302e-07
2	1	0	1	0	1	152.902	0.420776	0.420528	-0.00184953	8	1.93072e-05	13	0	2.896	-7.77779e-07
2	0	0	1	0	1	154.7	0.402801	0.402525	-0.00203503	8	1.67219e-05	13	0	4.6935	-8.1915e-07
2	0	0	1	0	1	156.497	0.384827	0.384519	-0.00230309	8	1.39034e-05	13	0	6.491	-8.85584e-07
2	0	0	1	0	1	158.295	0.366851	0.366509	-0.00272988	8	1.08202e-05	13	0	8.2885	-1.00052e-06
2	1	0	1	0	0	159.983	0.35005	0.349895	0.00324684	9	7.63868e-06	13	0	0.000000000000000E+000	1.13605e-06
2	1	0	1	0	0	161.758	0.3678	0.367569	0.000999854	9	1.0742e-05	13	0	1.7751	3.67515e-07
2	1	0	1	0	0	163.555	0.385775	0.385491	0.000887579	9	1.38251e-05	13	0	3.5727	3.42154e-07
2	1	0	1	0	0	165.353	0.40375	0.403499	0.000846977	9	1.67505e-05	13	0	5.3701	3.41755e-07
2	1	0	1	0	0	167.15	0.421725	0.421535	0.000770838	9	1.95228e-05	13	0	7.1677	3.24936e-07
2	0	0	1	0	0	168.948	0.4397	0.439455	0.000932405	9	2.21539e-05	13	0	8.9651	4.0975e-07
2	0	0	1	0	0	170.652	0.443245	0.44299	-0.00114035	9	2.28504e-05	13	0	0.6491	-5.05161e-07
2	0	0	1	0	0	172.45	0.425271	0.424952	-0.00164703	9	2.05853e-05	13	0	2.4466	-6.99908e-07
2	0	0	1	0	0	174.247	0.407295	0.407029	-0.00201413	9	1.80722e-05	13	0	4.2441	-8.19811e-07
2	0	0	1	0	0	176.045	0.38932	0.389057	-0.00246906	9	1.53273e-05	13	0	6.0417	-9.60604e-07
2	0	0	1	0	0	177.842	0.371345	0.371089	-0.00257103	9	1.23292e-05	13	0	7.8391	-9.54081e-07
2	0	0	1	0	0	179.64	0.35337	0.353083	-0.00236357	9	9.02746e-06	13	0	9.6367	-8.34537e-07
2	0	0	1	0	1	181.305	0.363306	0.363072	0.00165508	10	1.06465e-05	13	0	1.3307	6.00913e-07
2	0	0	1	0	1	183.102	0.381281	0.381029	0.00220142	10	1.37529e-05	13	0	3.1283	8.38805e-07
2	0	0	1	0	1	184.9	0.399256	0.399026	0.00216212	10	1.66987e-05	13	0	4.9257	8.62745e-07
2	1	0	1	0	1	186.697	0.417231	0.41704	0.00165013	10	1.94935e-05	13	0	6.7233	6.88169e-07
2	1	0	1	0	1	188.495	0.435207	0.434926	0.000912666	10	2.21499e-05	13	0	8.5208	3.96942e-07
2	0	0	1	0	1	190.199	0.447739	0.447529	-0.000627046	10	2.4013e-05	13	0	0.2271	-2.80622e-07
2	0	0	1	0	1	191.997	0.429764	0.429537	-0.00110972	10	2.18301e-05	13	0	2.0247	-4.76665e-07
2	0	0	1	0	1	193.794	0.411789	0.411581	-0.00163796	10	1.93759e-05	13	0	3.8221	-6.74152e-07
2	0	0	1	0	1	195.592	0.393814	0.393561	-0.00230729	10	1.66934e-05	13	0	5.6197	-9.08062e-07
2	0	0	1	0	1	197.389	0.375838	0.375544	-0.00243547	10	1.37671e-05	13	0	7.4172	-9.14625e-07
2	0	0	1	0	1	199.187	0.357864	0.357578	-0.00155877	10	1.05399e-05	13	0	9.2147	-5.57381e-07
2	0	0	1	0	1	199.971	0.35	0.349724	-0.000913236	10	9.04111e-06	13	0	9.9986	-3.1938e-07

File: 20251112_2-148_005_gamma_reproducibility_Na1_02_PEIS_C01.mpt
EC-Lab ASCII FILE
Nb header lines : 63

Potentio Electrochemical Impedance Spectroscopy

Run on channel : 1 (SN 69187)
User :
CE vs. WE compliance from -10 V to 10 V
Electrode connection : standard
Potential control : Ewe
Ewe ctrl range : min = -1.00 V, max = 1.00 V
Safety Limits :
	Do not start on E overload
Acquisition started on : 11/12/2025 19:47:23.448
Loaded Setting File :  C:\Users\User\Documents\EC-Lab\Data\Yatsuzuka\20251030_2-147_gamma_reproducibility\20251030_2-147_001_gamma1_K_1.mps
Saved on :
	File : 20251112_2-148_005_gamma_reproducibility_Na1_02_PEIS_C01.mpr
	Directory : C:\Users\User\Documents\EC-Lab\Data\Yatsuzuka\20251112_2-148_alpha_reproducibility\
	Host : 192.109.209.127
Device : SP-150e (SN .003883)
Address : 192.109.209.128
EC-Lab for windows v11.52 (software)
Internet server v11.52 (firmware)
Command interpretor v11.50 (firmware)
Electrode material :
Initial state :
Electrolyte :
Comments :
Electrode surface area : 0.001 cm2
Characteristic mass : 0.001 g
Equivalent Weight : 0.000 g/eq.
Density : 0.000 g/cm3
Volume (V) : 0.001 cm3
Cycle Definition : Charge/Discharge alternance
Mode                Single sine
E (V)               0.4500
vs.                 Ref
tE (h:m:s)          0:00:0.0000
record              0
dI                  0.000
unit dI             mA
dt (s)              0.000
fi                  500.000
unit fi             kHz
ff                  1.000
unit ff             Hz
Nd                  6
Points              per decade
spacing             Logarithmic
Va (mV)             10.0
pw                  0.10
Na                  2
corr                0
E range min (V)     -1.000
E range max (V)     1.000
I Range             Auto
Bandwidth           5
nc cycles           0
goto Ns'            0
nr cycles           0
inc. cycle          0

freq/Hz	Re(Z)/Ohm	-Im(Z)/Ohm	|Z|/Ohm	Phase(Z)/deg	time/s	<Ewe>/V	<I>/mA	Cs/uF	Cp/uF	cycle number	I Range	|Ewe|/V	|I|/A	Ns	(Q-Qo)/mA.h	Re(Y)/Ohm-1	Im(Y)/Ohm-1	|Y|/Ohm-1	Phase(Y)/deg	Re(C)/nF	Im(C)/nF	|C|/nF	Phase(C)/deg	Re(M)	Im(M)	|M|	Phase(M)/deg	Re(Permittivity)	Im(Permittivity)	|Permittivity|	Phase(Permittivity)/deg	Re(Resistivity)/Ohm.cm	Im(Resistivity)/Ohm.cm	|Resistivity|/Ohm.cm	Phase(Resistivity)/deg	Re(Conductivity)/mS/cm	Im(Conductivity)/mS/cm	|Conductivity|/mS/cm	Phase(Conductivity)/deg	Tan(Delta)	Loss Angle(Delta)/deg	dq/mA.h
500019	22.5532	-1.04129	22.5772	2.64349	202.259	0.450108	0.0090614	-0.305677	-0.000650225	1	10	0.00690556	0.000305864	0	1.71385e-05	0.0442453	-0.00204282	0.0442924	-2.64349	-0.650225	14.0832	14.0982	-92.6435	0.0000000E+000	0.0000000E+000	0.0000000E+000	92.6435	0.0000000E+000	0.0000000E+000	0.0000000E+000	-92.6435	0.0000000E+000	0.0000000E+000	0.0000000E+000	2.64349	0.0000000E+000	0.0000000E+000	0.0000000E+000	-2.64349	21.6589	87.3565	1.71385e-05
231063	14.2971	-0.782113	14.3185	3.13121	203.103	0.449779	0.0113758	-0.880686	-0.00262765	1	10	0.0107736	0.00075243	0	1.98217e-05	0.0697356	-0.00381484	0.0698399	-3.13121	-2.62765	48.0336	48.1054	-93.1312	0.0000000E+000	0.0000000E+000	0.0000000E+000	93.1312	0.0000000E+000	0.0000000E+000	0.0000000E+000	-93.1312	0.0000000E+000	0.0000000E+000	0.0000000E+000	3.13121	0.0000000E+000	0.0000000E+000	0.0000000E+000	-3.13121	18.2801	86.8688	1.22833e-06
106786	12.9771	-0.169188	12.9782	0.746949	204.084	0.449752	0.0112976	-8.80916	-0.00149708	1	10	0.0108038	0.000832461	0	2.12747e-05	0.0770458	-0.00100448	0.0770523	-0.746949	-1.49708	114.83	114.839	-90.7469	0.0000000E+000	0.0000000E+000	0.0000000E+000	90.7469	0.0000000E+000	0.0000000E+000	0.0000000E+000	-90.7469	0.0000000E+000	0.0000000E+000	0.0000000E+000	0.746949	0.0000000E+000	0.0000000E+000	0.0000000E+000	-0.746949	76.7021	89.2531	-2.31916e-07
49352.4	12.8261	0.0197431	12.8261	-0.0881948	204.928	0.449742	0.0112118	163.342	0.000387024	1	10	0.0106052	0.000826843	0	2.43393e-05	0.077966	0.000120012	0.0779661	0.0881948	0.387029	251.43	251.43	-89.9118	0.0000000E+000	0.0000000E+000	0.0000000E+000	89.9118	0.0000000E+000	0.0000000E+000	0.0000000E+000	-89.9118	0.0000000E+000	0.0000000E+000	0.0000000E+000	-0.0881948	0.0000000E+000	0.0000000E+000	0.0000000E+000	0.0881948	649.65	89.9118	1.54327e-06
22806.6	12.8069	0.114506	12.8074	-0.512268	205.772	0.449746	0.0120094	60.9441	0.00487156	1	10	0.0103981	0.000811884	0	2.80792e-05	0.0780768	0.000698085	0.07808	0.512268	4.87157	544.857	544.879	-89.4877	0.0000000E+000	0.0000000E+000	0.0000000E+000	89.4877	0.0000000E+000	0.0000000E+000	0.0000000E+000	-89.4877	0.0000000E+000	0.0000000E+000	0.0000000E+000	-0.512268	0.0000000E+000	0.0000000E+000	0.0000000E+000	0.512268	111.844	89.4877	1.99249e-06
10540.4	12.8301	0.223117	12.8321	-0.99628	206.616	0.449738	0.0115677	67.6753	0.0204599	1	10	0.0101362	0.000789909	0	2.93516e-05	0.077918	0.001355	0.0779298	0.99628	20.4599	1176.53	1176.7	-89.0037	0.0000000E+000	0.0000000E+000	0.0000000E+000	89.0037	0.0000000E+000	0.0000000E+000	0.0000000E+000	-89.0037	0.0000000E+000	0.0000000E+000	0.0000000E+000	-0.99628	0.0000000E+000	0.0000000E+000	0.0000000E+000	0.99628	57.5039	89.0037	1.66548e-06
4871.56	12.8614	0.435473	12.8688	-1.93923	207.607	0.44976	0.0119665	75.0224	0.0859094	1	10	0.0105281	0.00081811	0	3.25206e-05	0.0776631	0.00262959	0.0777076	1.93923	85.9092	2537.27	2538.73	-88.0608	0.0000000E+000	0.0000000E+000	0.0000000E+000	88.0608	0.0000000E+000	0.0000000E+000	0.0000000E+000	-88.0608	0.0000000E+000	0.0000000E+000	0.0000000E+000	-1.93923	0.0000000E+000	0.0000000E+000	0.0000000E+000	1.93923	29.5343	88.0608	1.31228e-06
2250.72	12.9387	0.871548	12.9681	-3.8536	208.537	0.449758	0.0117914	81.1349	0.366471	1	10	0.010876	0.000838674	0	3.5357e-05	0.0769382	0.00518252	0.0771125	3.8536	366.471	5440.52	5452.85	-86.1464	0.0000000E+000	0.0000000E+000	0.0000000E+000	86.1464	0.0000000E+000	0.0000000E+000	0.0000000E+000	-86.1464	0.0000000E+000	0.0000000E+000	0.0000000E+000	-3.8536	0.0000000E+000	0.0000000E+000	0.0000000E+000	3.8536	14.8457	86.1464	2.05337e-06
1040.33	13.0311	1.7647	13.1501	-7.71218	209.467	0.44976	0.0119442	86.6917	1.56122	1	10	0.0109399	0.000831931	0	3.85129e-05	0.0753575	0.010205	0.0760453	7.71218	1561.21	11528.5	11633.8	-82.2878	0.0000000E+000	0.0000000E+000	0.0000000E+000	82.2878	0.0000000E+000	0.0000000E+000	0.0000000E+000	-82.2878	0.0000000E+000	0.0000000E+000	0.0000000E+000	-7.71218	0.0000000E+000	0.0000000E+000	0.0000000E+000	7.71218	7.38433	82.2878	9.62548e-07
480.769	13.2178	3.59292	13.6974	-15.207	210.398	0.449762	0.0116423	92.1373	6.33948	1	10	0.0109557	0.000799834	0	4.22833e-05	0.0704501	0.0191501	0.0730064	15.207	6339.48	23322	24168.2	-74.793	0.0000000E+000	0.0000000E+000	0.0000000E+000	74.793	0.0000000E+000	0.0000000E+000	0.0000000E+000	-74.793	0.0000000E+000	0.0000000E+000	0.0000000E+000	-15.207	0.0000000E+000	0.0000000E+000	0.0000000E+000	15.207	3.67884	74.793	1.78178e-06
222.061	13.4988	7.43103	15.4091	-28.8325	211.322	0.449754	0.0118156	96.4493	22.4309	1	10	0.0109409	0.000710033	0	4.49527e-05	0.0568518	0.0312966	0.0648969	28.8325	22430.8	40746.7	46512.8	-61.1675	0.0000000E+000	0.0000000E+000	0.0000000E+000	61.1675	0.0000000E+000	0.0000000E+000	0.0000000E+000	-61.1675	0.0000000E+000	0.0000000E+000	0.0000000E+000	-28.8325	0.0000000E+000	0.0000000E+000	0.0000000E+000	28.8325	1.81655	61.1675	7.74925e-07
102.667	14.0316	15.4153	20.8451	-47.6904	212.259	0.449766	0.0115677	100.562	54.9962	1	10	0.0109373	0.000524693	0	4.8365e-05	0.0322923	0.0354769	0.0479729	47.6904	54996.2	50059.5	74367.6	-42.3096	0.0000000E+000	0.0000000E+000	0.0000000E+000	42.3096	0.0000000E+000	0.0000000E+000	0.0000000E+000	-42.3096	0.0000000E+000	0.0000000E+000	0.0000000E+000	-47.6904	0.0000000E+000	0.0000000E+000	0.0000000E+000	47.6904	0.910236	42.3096	1.70374e-06
47.4443	15.0582	32.4043	35.7322	-65.0759	213.424	0.449746	0.00034026	103.522	85.1372	1	11	0.0109424	0.000306234	0	4.92094e-05	0.0117938	0.0253795	0.027986	65.0759	85137.2	39563	93880.7	-24.9241	0.0000000E+000	0.0000000E+000	0.0000000E+000	24.9241	0.0000000E+000	0.0000000E+000	0.0000000E+000	-24.9241	0.0000000E+000	0.0000000E+000	0.0000000E+000	-65.0759	0.0000000E+000	0.0000000E+000	0.0000000E+000	65.0759	0.464697	24.9241	-2.56577e-07
21.9144	17.073	68.145	70.2512	-75.9347	214.291	0.449762	0.000149043	106.575	100.28	1	11	0.0109308	0.000155595	0	4.89509e-05	0.0034594	0.0138079	0.0142346	75.9347	100280	25124.1	103380	-14.0653	0.0000000E+000	0.0000000E+000	0.0000000E+000	14.0653	0.0000000E+000	0.0000000E+000	0.0000000E+000	-14.0653	0.0000000E+000	0.0000000E+000	0.0000000E+000	-75.9347	0.0000000E+000	0.0000000E+000	0.0000000E+000	75.9347	0.250539	14.0653	-3.92394e-07
10.1329	21.338	143.868	145.442	-81.5636	215.468	0.449767	-3.29539e-05	109.174	106.824	1	12	0.0109431	7.52404e-05	0	4.97594e-05	0.00100873	0.00680121	0.00687561	81.5636	106824	15843.8	107993	-8.4364	0.0000000E+000	0.0000000E+000	0.0000000E+000	8.4364	0.0000000E+000	0.0000000E+000	0.0000000E+000	-8.4364	0.0000000E+000	0.0000000E+000	0.0000000E+000	-81.5636	0.0000000E+000	0.0000000E+000	0.0000000E+000	81.5636	0.148316	8.4364	8.44729e-07
4.68375	29.2761	302.351	303.765	-84.4694	216.318	0.449771	-1.36233e-05	112.386	111.343	1	12	0.0109189	3.59452e-05	0	4.93822e-05	0.000317276	0.00327669	0.00329201	84.4694	111343	10781.1	111863	-5.5306	0.0000000E+000	0.0000000E+000	0.0000000E+000	5.5306	0.0000000E+000	0.0000000E+000	0.0000000E+000	-5.5306	0.0000000E+000	0.0000000E+000	0.0000000E+000	-84.4694	0.0000000E+000	0.0000000E+000	0.0000000E+000	84.4694	0.0968281	5.53061	-1.05388e-07
2.16533	46.8452	637.833	639.551	-85.7995	218.543	0.449777	0.000116039	115.236	114.618	1	13	0.0109265	1.70847e-05	0	4.97957e-05	0.000114529	0.0015594	0.0015636	85.7995	114618	8418.05	114927	-4.20051	0.0000000E+000	0.0000000E+000	0.0000000E+000	4.20051	0.0000000E+000	0.0000000E+000	0.0000000E+000	-4.20051	0.0000000E+000	0.0000000E+000	0.0000000E+000	-85.7995	0.0000000E+000	0.0000000E+000	0.0000000E+000	85.7995	0.0734443	4.2005	-3.77915e-08
1.00006	85.9917	1344.36	1347.11	-86.3401	222.153	0.449773	3.85136e-05	118.38	117.897	1	13	0.0109196	8.10596e-06	0	4.94068e-05	4.73864e-05	0.000740819	0.000742333	86.3401	117897	7541.3	118138	-3.65993	0.0000000E+000	0.0000000E+000	0.0000000E+000	3.65993	0.0000000E+000	0.0000000E+000	0.0000000E+000	-3.65993	0.0000000E+000	0.0000000E+000	0.0000000E+000	-86.3401	0.0000000E+000	0.0000000E+000	0.0000000E+000	86.3401	0.0639649	3.65994	-8.84515e-08