Folder: SI_for_publications/ACS_Catal_2026/Figures_Na_K/main_figures/data/EC/20251112_2-148_alpha_reproducibility (part 26)

File: 20251112_2-148_005_gamma_reproducibility_K1_03_CVA_C01.mpt
EC-Lab ASCII FILE
Nb header lines : 66

Cyclic Voltammetry Advanced

Run on channel : 1 (SN 69187)
User :
CE vs. WE compliance from -10 V to 10 V
Electrode connection : standard
Potential control : Ewe
Ewe ctrl range : min = -1.00 V, max = 1.00 V
Safety Limits :
	Do not start on E overload
Acquisition started on : 11/12/2025 19:09:25.688
Loaded Setting File :  C:\Users\User\Documents\EC-Lab\Data\Yatsuzuka\20251030_2-147_gamma_reproducibility\20251030_2-147_001_gamma1_K_1.mps
Saved on :
	File : 20251112_2-148_005_gamma_reproducibility_K1_03_CVA_C01.mpr
	Directory : C:\Users\User\Documents\EC-Lab\Data\Yatsuzuka\20251112_2-148_alpha_reproducibility\
	Host : 192.109.209.127
Device : SP-150e (SN .003883)
Address : 192.109.209.128
EC-Lab for windows v11.52 (software)
Internet server v11.52 (firmware)
Command interpretor v11.50 (firmware)
Electrode material :
Initial state :
Electrolyte :
Comments :
Electrode surface area : 0.001 cm2
Characteristic mass : 0.001 g
Equivalent Weight : 0.000 g/eq.
Density : 0.000 g/cm3
Volume (V) : 0.001 cm3
Cycle Definition : Charge/Discharge alternance
Ei (V)              0.450
vs.                 Ref
ti (h:m:s)          0:00:10.0000
dti (s)             0.0000
dE/dt               5.000
dE/dt unit          mV/s
E1 (V)              0.700
vs.                 Ref
t1 (h:m:s)          0:00:0.0000
dt1 (s)             0.1000
Step percent        50
N                   10
E range min (V)     -1.000
E range max (V)     1.000
I Range             10 mA
I Range min         Unset
I Range max         Unset
I Range init        Unset
Bandwidth           5
E2 (V)              0.450
vs.                 Ref
t2 (h:m:s)          0:00:0.0000
dt2 (s)             0.1000
nc cycles           14
nr                  1
Reverse Scan        0
Ef (V)              0.000
vs.                 Eoc
tf (h:m:s)          0:00:0.0000
dtf (s)             0.1000

mode	ox/red	error	control changes	Ns changes	counter inc.	time/s	control/V	Ewe/V	<I>/mA	cycle number	(Q-Qo)/C	I Range	Ns	step time/s	P/W
2	0	0	0	0	0	232.468	0.449961	0.449697	-0.00247913	1	0.0000000E+000	11	0	0.000000000000000E+000	-1.11486e-06
2	0	0	1	0	0	245.605	0.515645	0.515411	0.00208129	1	2.81415e-05	11	0	13.0818	1.07272e-06
2	1	0	1	0	0	258.787	0.581553	0.581334	0.00450657	1	7.01046e-05	11	0	26.2635	2.61982e-06
2	1	0	1	0	0	271.968	0.647462	0.647299	0.02793	1	0.000230367	11	0	39.4452	1.8079e-05
2	1	0	1	0	0	284.933	0.687706	0.68746	0.0865051	1	0.00124071	11	0	52.4095	5.94688e-05
2	1	0	1	0	0	298.114	0.621798	0.621555	0.00705303	1	0.00166159	11	0	65.5912	4.38384e-06
2	1	0	1	0	0	311.296	0.555888	0.555669	0.000875215	1	0.00169463	11	0	78.773	4.86329e-07
2	1	0	1	0	0	324.478	0.48998	0.489791	0.000199563	1	0.00169754	11	0	0.0999	9.77443e-08
2	1	0	1	0	1	337.517	0.475251	0.474979	0.00139484	2	0.00170452	11	0	5.0477	6.62519e-07
2	1	0	0	0	1	350.699	0.541159	0.540918	0.00162696	2	0.0017255	11	0	18.2294	8.80055e-07
2	1	0	1	0	1	363.88	0.607068	0.606852	0.00467623	2	0.00176062	11	0	31.4111	2.83778e-06
2	1	0	1	0	1	377.062	0.672977	0.672735	0.0452658	2	0.00199374	11	0	44.5929	3.04519e-05
2	1	0	1	0	1	390.016	0.662242	0.662019	0.0278822	2	0.00286189	11	0	57.5471	1.84586e-05
2	1	0	1	0	1	403.198	0.596332	0.596147	0.00220756	2	0.00299242	11	0	70.7289	1.31603e-06
2	1	0	0	0	1	416.38	0.530424	0.530233	0.000245506	2	0.00300172	11	0	83.9106	1.30176e-07
2	0	0	1	0	1	429.562	0.464516	0.464282	-0.000130906	2	0.00300176	11	0	0.0998	-6.07773e-08
2	1	0	1	0	0	442.601	0.500715	0.500498	0.00146093	3	0.00301656	11	0	10.086	7.3119e-07
2	1	0	0	0	0	455.783	0.566624	0.566393	0.00178394	3	0.00303809	11	0	23.2678	1.01041e-06
2	1	0	1	0	0	468.964	0.632533	0.632319	0.00945472	3	0.00309362	11	0	36.4495	5.9784e-06
2	1	0	1	0	0	482.146	0.698441	0.698228	0.102754	3	0.0036163	11	0	49.6312	7.17454e-05
2	1	0	1	0	0	495.1	0.636777	0.636598	0.00948794	3	0.00417085	11	0	62.5855	6.04e-06
2	1	0	1	0	0	508.282	0.570868	0.57066	0.000828409	3	0.00421375	11	0	75.7672	4.7274e-07
2	0	0	1	0	0	521.464	0.50496	0.504693	4.57937e-05	3	0.0042173	11	0	0.0998	2.31118e-08
2	1	0	1	0	1	534.503	0.460272	0.460021	0.00149388	4	0.00421988	11	0	1.9973	6.87217e-07
2	1	0	1	0	1	547.685	0.52618	0.52595	0.0014641	4	0.00423991	11	0	15.179	7.70045e-07
2	1	0	1	0	1	560.866	0.592089	0.591824	0.00273189	4	0.00426516	11	0	28.3607	1.6168e-06
2	1	0	0	0	1	574.048	0.657997	0.657776	0.0230759	4	0.00438148	11	0	41.5424	1.51788e-05
2	1	0	1	0	1	587.002	0.677221	0.676985	0.046896	4	0.00518224	11	0	54.4967	3.17479e-05
2	1	0	0	0	1	600.184	0.611312	0.611088	0.00316569	4	0.00539987	11	0	67.6784	1.93451e-06
2	0	0	1	0	1	613.366	0.545404	0.545169	0.000311334	4	0.00541345	11	0	80.8601	1.6973e-07
2	1	0	1	0	1	626.547	0.479494	0.479274	0.000135706	4	0.0054137	11	0	0.000000000000000E+000	6.50403e-08
2	0	0	0	0	0	639.587	0.485736	0.485514	0.00148943	5	0.00542321	11	0	7.0902	7.2314e-07
2	1	0	1	0	0	652.768	0.551645	0.551434	0.00160261	5	0.00544292	11	0	20.2719	8.83734e-07
2	1	0	1	0	0	665.95	0.617554	0.617256	0.00489996	5	0.0054776	11	0	33.4537	3.02453e-06
2	1	0	1	0	0	679.132	0.683461	0.68327	0.0612111	5	0.0057738	11	0	46.6353	4.18237e-05
2	1	0	1	0	0	692.086	0.651756	0.651568	0.0177912	5	0.0065484	11	0	59.5896	1.15921e-05
2	1	0	1	0	0	705.268	0.585848	0.585641	0.0010526	5	0.00662385	11	0	72.7713	6.16445e-07
2	1	0	1	0	0	718.449	0.519939	0.519686	0.000241688	5	0.00662877	11	0	0.0999	1.25602e-07
2	1	0	1	0	0	731.631	0.45403	0.453818	4.30328e-05	5	0.00662772	11	0	0.1997	1.95291e-08
2	0	0	1	0	1	744.67	0.511201	0.510931	0.00114737	6	0.00664481	11	0	12.1831	5.86228e-07
2	1	0	1	0	1	757.852	0.57711	0.576863	0.00184122	6	0.0066657	11	0	25.3649	1.06213e-06
2	1	0	1	0	1	771.034	0.643018	0.642815	0.0127917	6	0.00673201	11	0	38.5466	8.22266e-06
2	1	0	1	0	1	783.988	0.692199	0.691976	0.0875807	6	0.00744175	11	0	51.5009	6.06038e-05
2	1	0	1	0	1	797.17	0.626291	0.62607	0.0058164	6	0.00786628	11	0	64.6826	3.64147e-06
2	1	0	1	0	1	810.351	0.560382	0.560177	0.000603101	6	0.00788983	11	0	77.8643	3.37843e-07
2	1	0	0	0	1	823.533	0.494474	0.494238	0.000202803	6	0.00789182	11	0	0.000000000000000E+000	1.00233e-07
2	0	0	1	0	0	836.572	0.470756	0.47054	0.00118805	7	0.00789681	11	0	4.0943	5.59025e-07
2	1	0	1	0	0	849.754	0.536666	0.536426	0.00141384	7	0.00791602	11	0	17.2761	7.58421e-07
2	1	0	0	0	0	862.936	0.602574	0.602373	0.00295129	7	0.00794188	11	0	30.4578	1.77778e-06
2	1	0	1	0	0	876.117	0.668483	0.668259	0.0385208	7	0.00811638	11	0	43.6395	2.57419e-05
2	1	0	0	0	0	889.072	0.666735	0.66654	0.0374411	7	0.00906337	11	0	56.5938	2.4956e-05
2	1	0	1	0	0	902.253	0.600827	0.600611	0.00180678	7	0.00922129	11	0	69.7755	1.08517e-06
2	1	0	1	0	0	915.435	0.534918	0.53469	0.000353561	7	0.00922903	11	0	0.0998	1.89045e-07
2	0	0	1	0	0	928.617	0.46901	0.468786	4.60134e-05	7	0.00922878	11	0	0.0998	2.15704e-08
2	1	0	1	0	1	941.656	0.496222	0.49594	0.00129496	8	0.00924173	11	0	9.1873	6.42225e-07
2	1	0	1	0	1	954.838	0.56213	0.561941	0.00147868	8	0.00926155	11	0	22.369	8.30932e-07
2	1	0	1	0	1	968.019	0.628039	0.627798	0.00691098	8	0.00930284	11	0	35.5507	4.3387e-06
2	1	0	1	0	1	981.201	0.693948	0.693707	0.106803	8	0.00981949	11	0	48.7325	7.40902e-05
2	1	0	1	0	1	994.155	0.641271	0.641058	0.0131621	8	0.0106105	11	0	61.6867	8.43767e-06
2	1	0	1	0	1	1007.34	0.575361	0.575117	0.000773897	8	0.0106597	11	0	74.8685	4.45081e-07
2	0	0	1	0	1	1020.52	0.509453	0.509184	0.000165106	8	0.0106624	11	0	0.000000000000000E+000	8.40693e-08
[...]
2	1	0	1	0	1	1217.5	0.524433	0.524181	0.000220929	10	0.0138635	11	0	0.2996	1.15807e-07
2	1	0	1	0	1	1230.69	0.458523	0.458278	0.000194536	10	0.0138641	11	0	0.000000000000000E+000	8.91514e-08
2	1	0	1	0	0	1243.73	0.506707	0.506446	0.00142847	11	0.0138805	11	0	11.339	7.23442e-07
2	1	0	1	0	0	1256.91	0.572616	0.572409	0.00157555	11	0.0139008	11	0	24.5207	9.0186e-07
2	1	0	0	0	0	1270.09	0.638524	0.638265	0.0124863	11	0.0139593	11	0	37.7024	7.96959e-06
2	1	0	1	0	0	1283.04	0.696693	0.696461	0.147237	11	0.0148677	11	0	50.6567	0.000102545
2	1	0	0	0	0	1296.22	0.630785	0.630532	0.00892713	11	0.0156219	11	0	63.8384	5.62884e-06
2	0	0	1	0	0	1309.41	0.564877	0.564643	0.000435915	11	0.0156527	11	0	77.0201	2.46137e-07
2	1	0	1	0	0	1322.59	0.498968	0.498699	8.48194e-05	11	0.0156546	11	0	0.000000000000000E+000	4.22993e-08
2	1	0	0	0	1	1335.63	0.466263	0.466028	0.00140778	12	0.0156589	11	0	3.2502	6.56065e-07
2	0	0	1	0	1	1348.81	0.532172	0.531992	0.00146811	12	0.0156778	11	0	16.4319	7.81024e-07
2	1	0	1	0	1	1361.99	0.598081	0.597845	0.00250153	12	0.0157012	11	0	29.6137	1.49553e-06
2	1	0	1	0	1	1375.17	0.663989	0.663769	0.0467005	12	0.0158888	11	0	42.7953	3.09984e-05
2	1	0	1	0	1	1388.13	0.671229	0.671075	0.0688168	12	0.017282	11	0	55.7496	4.61812e-05
2	1	0	1	0	1	1401.31	0.605321	0.605101	0.00222055	12	0.0175667	11	0	68.9313	1.34366e-06
2	1	0	1	0	1	1414.49	0.539411	0.539132	0.000343629	12	0.0175755	11	0	82.1131	1.85262e-07
2	1	0	1	0	1	1427.67	0.473503	0.473255	-9.97845e-06	12	0.0175764	11	0	0.000000000000000E+000	-4.72235e-09
2	0	0	1	0	0	1440.71	0.491728	0.491478	0.00120892	13	0.0175882	11	0	8.2885	5.94157e-07
2	1	0	1	0	0	1453.89	0.557637	0.557408	0.00146396	13	0.0176074	11	0	21.4703	8.16024e-07
2	1	0	1	0	0	1467.07	0.623545	0.623358	0.00636293	13	0.0176437	11	0	34.652	3.96639e-06
2	1	0	1	0	0	1480.26	0.689454	0.689246	0.134155	13	0.0182677	11	0	47.8337	9.24657e-05
2	1	0	1	0	0	1493.21	0.645764	0.645559	0.0240529	13	0.0195541	11	0	60.788	1.55276e-05
2	1	0	1	0	0	1506.39	0.579856	0.579622	0.00091925	13	0.0196341	11	0	73.9697	5.32818e-07
2	1	0	0	0	0	1519.57	0.513947	0.513692	0.000284602	13	0.0196378	11	0	0.000000000000000E+000	1.46198e-07
2	1	0	1	0	1	1532.61	0.451284	0.451075	0.00124944	14	0.0196379	11	0	0.1997	5.63593e-07
2	1	0	1	0	1	1545.8	0.517193	0.516975	0.00126735	14	0.0196568	11	0	13.3815	6.55188e-07
2	1	0	0	0	1	1558.98	0.583101	0.582819	0.00171451	14	0.0196776	11	0	26.5632	9.99247e-07
2	1	0	1	0	1	1572.16	0.64901	0.648846	0.0259484	14	0.0197778	11	0	39.7449	1.68365e-05
2	1	0	0	0	1	1585.11	0.686208	0.685996	0.133187	14	0.0211854	11	0	52.6992	9.13654e-05
2	1	0	1	0	1	1598.29	0.6203	0.620038	0.00563395	14	0.0218181	11	0	65.8809	3.49326e-06
2	1	0	1	0	1	1611.48	0.554391	0.55411	0.000315128	14	0.0218367	11	0	79.0626	1.74615e-07
2	1	0	1	0	1	1624.66	0.488483	0.488245	0.000239191	14	0.0218382	11	0	0.0998	1.16784e-07
2	0	0	1	0	0	1637.7	0.476749	0.476535	0.00130823	15	0.0218458	11	0	5.2927	6.23416e-07
2	1	0	1	0	0	1650.88	0.542657	0.542407	0.00148737	15	0.021865	11	0	18.4744	8.06759e-07
2	1	0	1	0	0	1664.06	0.608565	0.608354	0.00354399	15	0.0218915	11	0	31.6561	2.156e-06
2	1	0	1	0	0	1677.24	0.674475	0.67422	0.0892814	15	0.0222594	11	0	44.8379	6.01953e-05
2	1	0	1	0	0	1690.2	0.660744	0.660509	0.0564691	15	0.0239673	11	0	57.7921	3.72983e-05
2	1	0	1	0	0	1703.38	0.594834	0.594588	0.00153471	15	0.0241745	11	0	70.9739	9.12519e-07
2	1	0	1	0	0	1716.56	0.528926	0.528667	0.00031928	15	0.0241807	11	0	84.1556	1.68793e-07
2	1	0	1	0	0	1729.74	0.463018	0.462786	0.000211174	15	0.0241816	11	0	0.000000000000000E+000	9.77285e-08
2	1	0	1	0	0	1732.34	0.450011	0.449773	8.03834e-05	15	0.0241814	11	0	0.3017	3.61543e-08

File: 20251112_2-148_005_gamma_reproducibility_K2_01_CVA_C01.mpt
EC-Lab ASCII FILE
Nb header lines : 66

Cyclic Voltammetry Advanced

Run on channel : 1 (SN 69187)
User :
CE vs. WE compliance from -10 V to 10 V
Electrode connection : standard
Potential control : Ewe
Ewe ctrl range : min = -1.00 V, max = 1.00 V
Safety Limits :
	Do not start on E overload
Acquisition started on : 11/12/2025 20:19:02.947
Loaded Setting File :  C:\Users\User\Documents\EC-Lab\Data\Yatsuzuka\20251030_2-147_gamma_reproducibility\20251030_2-147_001_gamma1_K_1.mps
Saved on :
	File : 20251112_2-148_005_gamma_reproducibility_K2_01_CVA_C01.mpr
	Directory : C:\Users\User\Documents\EC-Lab\Data\Yatsuzuka\20251112_2-148_alpha_reproducibility\
	Host : 192.109.209.127
Device : SP-150e (SN .003883)
Address : 192.109.209.128
EC-Lab for windows v11.52 (software)
Internet server v11.52 (firmware)
Command interpretor v11.50 (firmware)
Electrode material :
Initial state :
Electrolyte :
Comments :
Electrode surface area : 0.001 cm2
Characteristic mass : 0.001 g
Equivalent Weight : 0.000 g/eq.
Density : 0.000 g/cm3
Volume (V) : 0.001 cm3
Cycle Definition : Charge/Discharge alternance
Ei (V)              0.350
vs.                 Ref
ti (h:m:s)          0:00:10.0000
dti (s)             0.0000
dE/dt               10.000
dE/dt unit          mV/s
E1 (V)              0.450
vs.                 Ref
t1 (h:m:s)          0:00:0.0000
dt1 (s)             0.1000
Step percent        50
N                   10
E range min (V)     -1.000
E range max (V)     1.000
I Range             Auto
I Range min         Unset
I Range max         Unset
I Range init        Unset
Bandwidth           5
E2 (V)              0.350
vs.                 Ref
t2 (h:m:s)          0:00:0.0000
dt2 (s)             0.1000
nc cycles           9
nr                  1
Reverse Scan        0
Ef (V)              0.000
vs.                 Eoc
tf (h:m:s)          0:00:0.0000
dtf (s)             0.1000

mode	ox/red	error	control changes	Ns changes	counter inc.	time/s	control/V	Ewe/V	<I>/mA	cycle number	(Q-Qo)/C	I Range	Ns	step time/s	P/W
2	0	0	0	0	0	0.000000000000000E+000	0.34995	0.349647	-0.000544676	1	0.0000000E+000	13	0	0.000000000000000E+000	-1.90445e-07
2	1	0	1	0	0	1.7749	0.3677	0.367448	0.00177859	1	3.02483e-06	13	0	1.7476	6.5354e-07
2	1	0	1	0	0	3.5725	0.385675	0.385424	0.0021687	1	5.97806e-06	13	0	3.5452	8.35868e-07
2	1	0	1	0	0	5.3699	0.40365	0.403381	0.00135615	1	8.74775e-06	13	0	5.3426	5.47046e-07
2	0	0	1	0	0	7.1675	0.421625	0.42137	0.00129696	1	1.13559e-05	13	0	7.1402	5.46498e-07
2	1	0	1	0	0	8.965	0.439601	0.43937	0.00183621	1	1.38107e-05	13	0	8.9377	8.06774e-07
2	0	0	1	0	0	10.6793	0.443245	0.442934	-0.00177452	1	1.45155e-05	13	0	0.6765	-7.85997e-07
2	0	0	1	0	0	12.4768	0.425271	0.425006	-0.000821955	1	1.2432e-05	13	0	2.474	-3.49335e-07
2	1	0	1	0	0	14.2743	0.407295	0.407048	-0.001609	1	1.00934e-05	13	0	4.2715	-6.5494e-07
2	1	0	1	0	0	16.0719	0.38932	0.38909	-0.00102573	1	7.53068e-06	13	0	6.0691	-3.99102e-07
2	1	0	1	0	0	17.8693	0.371345	0.371062	-0.00208727	1	4.72103e-06	13	0	7.8665	-7.74507e-07
2	0	0	1	0	0	19.6669	0.35337	0.353096	-0.00126717	1	1.61353e-06	13	0	9.6641	-4.47433e-07
2	1	0	1	0	1	21.3321	0.363306	0.363053	0.00226409	2	3.12849e-06	13	0	1.3257	8.21983e-07
2	1	0	1	0	1	23.1297	0.381281	0.380987	0.00147121	2	6.03075e-06	13	0	3.1233	5.60511e-07
2	0	0	1	0	1	24.9271	0.399256	0.399035	0.00190455	2	8.79255e-06	13	0	4.9207	7.5998e-07
2	1	0	1	0	1	26.7247	0.417231	0.416997	0.00146475	2	1.13995e-05	13	0	6.7183	6.10796e-07
2	0	0	1	0	1	28.5222	0.435207	0.434923	0.000905035	2	1.38713e-05	13	0	8.5158	3.9362e-07
2	0	0	1	0	1	30.2265	0.447739	0.447527	-0.000812494	2	1.55981e-05	13	0	0.1997	-3.63613e-07
2	0	0	1	0	1	32.0241	0.429764	0.429533	-0.0011365	2	1.35878e-05	13	0	1.9973	-4.88163e-07
2	0	0	1	0	1	33.8215	0.411789	0.411573	-0.00206366	2	1.13182e-05	13	0	3.7947	-8.49347e-07
2	1	0	1	0	1	35.6191	0.393814	0.393552	-0.00077691	2	8.81728e-06	13	0	5.5923	-3.05755e-07
2	1	0	1	0	1	37.4166	0.375838	0.37559	-0.00216316	2	6.07356e-06	13	0	7.3898	-8.12462e-07
2	0	0	1	0	1	39.2141	0.357864	0.357525	-0.00201864	2	3.04565e-06	13	0	9.1873	-7.21713e-07
2	1	0	1	0	0	40.8794	0.358813	0.358532	0.00117498	3	3.0112e-06	13	0	0.8814	4.21266e-07
2	0	0	1	0	0	42.6769	0.376787	0.376552	0.00185633	3	5.93104e-06	13	0	2.6789	6.99003e-07
2	1	0	1	0	0	44.4744	0.394763	0.394487	0.00152703	3	8.71453e-06	13	0	4.4764	6.02394e-07
2	0	0	1	0	0	46.2719	0.412737	0.41254	0.000798172	3	1.13549e-05	13	0	6.2739	3.29278e-07
2	1	0	1	0	0	48.0694	0.430712	0.430468	0.00201628	3	1.38456e-05	13	0	8.0714	8.67943e-07
2	1	0	1	0	0	49.8669	0.448687	0.44853	0.000922015	3	1.62116e-05	13	0	9.8689	4.13551e-07
2	0	0	1	0	0	51.5713	0.434258	0.434007	-0.00149541	3	1.46983e-05	13	0	1.5479	-6.4902e-07
2	1	0	1	0	0	53.3688	0.416282	0.416053	-0.000719187	3	1.24864e-05	13	0	3.3454	-2.9922e-07
2	0	0	1	0	0	55.1663	0.398307	0.398007	-0.00144505	3	1.00391e-05	13	0	5.1429	-5.75141e-07
2	0	0	1	0	0	56.9638	0.380332	0.380014	-0.00230772	3	7.36578e-06	13	0	6.9404	-8.76965e-07
2	0	0	1	0	0	58.7613	0.362357	0.36207	-0.00162528	3	4.42857e-06	13	0	8.7379	-5.88465e-07
2	0	0	1	0	1	60.4266	0.354318	0.354079	0.000715841	4	2.86962e-06	13	0	0.427	2.53464e-07
2	1	0	1	0	1	62.2241	0.372294	0.372028	0.00234271	4	5.80352e-06	13	0	2.2245	8.71551e-07
2	1	0	1	0	1	64.0216	0.390268	0.390085	0.00188747	4	8.62587e-06	13	0	4.022	7.36276e-07
2	1	0	1	0	1	65.8191	0.408244	0.408054	0.000930688	4	1.12936e-05	13	0	5.8195	3.79771e-07
2	0	0	1	0	1	67.6167	0.426219	0.426037	0.00181885	4	1.38085e-05	13	0	7.6171	7.74899e-07
2	0	0	1	0	1	69.4141	0.444194	0.443969	0.00122904	4	1.62021e-05	13	0	9.4145	5.45656e-07
2	0	0	1	0	1	71.1185	0.438751	0.438486	-0.00180549	4	1.57845e-05	13	0	1.0985	-7.91681e-07
2	0	0	1	0	1	72.916	0.420776	0.42051	-0.00078279	4	1.36423e-05	13	0	2.896	-3.29171e-07
2	1	0	1	0	1	74.7135	0.402801	0.40257	-0.00192688	4	1.12667e-05	13	0	4.6935	-7.75706e-07
2	0	0	1	0	1	76.511	0.384827	0.384537	-0.001341	4	8.65673e-06	13	0	6.491	-5.15664e-07
2	0	0	1	0	1	78.3085	0.366851	0.366569	-0.0017344	4	5.77996e-06	13	0	8.2885	-6.35776e-07
2	1	0	0	0	0	79.9962	0.35005	0.349819	0.00188328	5	2.84447e-06	13	0	0.000000000000000E+000	6.58807e-07
2	1	0	1	0	0	81.7713	0.3678	0.367551	0.00116924	5	5.67132e-06	13	0	1.7751	4.29756e-07
2	0	0	1	0	0	83.5689	0.385775	0.385484	0.00126565	5	8.52449e-06	13	0	3.5727	4.87886e-07
2	0	0	1	0	0	85.3663	0.40375	0.40346	0.00194902	5	1.12228e-05	13	0	5.3701	7.86354e-07
2	1	0	1	0	0	87.1639	0.421725	0.421489	0.00139176	5	1.37762e-05	13	0	7.1677	5.86611e-07
2	1	0	1	0	0	88.9613	0.4397	0.439485	0.000832085	5	1.62027e-05	13	0	8.9651	3.65689e-07
2	0	0	1	0	0	90.6657	0.443245	0.442979	-0.0013139	5	1.68591e-05	13	0	0.6491	-5.82028e-07
2	0	0	1	0	0	92.4632	0.425271	0.425006	-0.000902972	5	1.47738e-05	13	0	2.4466	-3.83769e-07
2	0	0	1	0	0	94.2607	0.407295	0.407028	-0.00191446	5	1.24596e-05	13	0	4.2441	-7.79237e-07
2	1	0	1	0	0	96.0583	0.38932	0.389081	-0.00115288	5	9.91782e-06	13	0	6.0417	-4.48566e-07
2	1	0	1	0	0	97.8557	0.371345	0.371081	-0.00129031	5	7.12147e-06	13	0	7.8391	-4.78811e-07
2	0	0	1	0	0	99.6533	0.35337	0.35307	-0.00210336	5	4.04333e-06	13	0	9.6367	-7.42634e-07
2	1	0	1	0	1	101.318	0.363306	0.363071	0.000964997	6	5.54638e-06	13	0	1.3257	3.50363e-07
2	1	0	1	0	1	103.116	0.381281	0.381015	0.00241765	6	8.42205e-06	13	0	3.1233	9.21162e-07
2	1	0	1	0	1	104.913	0.399256	0.399001	0.00108617	6	1.11509e-05	13	0	4.9207	4.33381e-07
[...]
2	0	0	1	0	0	129.853	0.448687	0.448503	0.000868923	7	1.84739e-05	13	0	9.8364	3.89715e-07
2	0	0	1	0	0	131.558	0.434258	0.433976	-0.00184129	7	1.69551e-05	13	0	1.5479	-7.99074e-07
2	0	0	1	0	0	133.355	0.416282	0.416032	-0.00134701	7	1.47487e-05	13	0	3.3454	-5.60397e-07
2	0	0	1	0	0	135.153	0.398307	0.398048	-0.00114064	7	1.23169e-05	13	0	5.1429	-4.5403e-07
2	0	0	1	0	0	136.95	0.380332	0.380062	-0.00246323	7	9.66395e-06	13	0	6.9404	-9.36178e-07
2	0	0	1	0	0	138.748	0.362357	0.3621	-0.00198023	7	6.74975e-06	13	0	8.7379	-7.17043e-07
2	1	0	1	0	1	140.413	0.354318	0.354039	0.00103448	8	5.20912e-06	13	0	0.3995	3.66246e-07
2	0	0	1	0	1	142.21	0.372294	0.372085	0.00174143	8	8.1194e-06	13	0	2.197	6.4796e-07
2	1	0	1	0	1	144.008	0.390268	0.390041	0.00198656	8	1.09162e-05	13	0	3.9945	7.74838e-07
2	0	0	1	0	1	145.805	0.408244	0.407993	0.000834749	8	1.3571e-05	13	0	5.792	3.40571e-07
2	0	0	1	0	1	147.603	0.426219	0.425944	0.00187657	8	1.60721e-05	13	0	7.5896	7.99312e-07
2	1	0	1	0	1	149.4	0.444194	0.443988	0.00151177	8	1.84497e-05	13	0	9.387	6.71207e-07
2	1	0	1	0	1	151.105	0.438751	0.438523	-0.00107775	8	1.80306e-05	13	0	1.0985	-4.72617e-07
2	0	0	1	0	1	152.902	0.420776	0.420451	-0.00188315	8	1.58876e-05	13	0	2.896	-7.91774e-07
2	0	0	1	0	1	154.7	0.402801	0.402506	-0.00167086	8	1.35202e-05	13	0	4.6935	-6.72532e-07
2	0	0	1	0	1	156.497	0.384827	0.384548	-0.00105196	8	1.09299e-05	13	0	6.491	-4.0453e-07
2	0	0	1	0	1	158.295	0.366851	0.366571	-0.00135182	8	8.0904e-06	13	0	8.2885	-4.95538e-07
2	1	0	0	0	0	159.983	0.35005	0.3498	0.00329806	9	5.1827e-06	13	0	0.000000000000000E+000	1.15366e-06
2	1	0	1	0	0	161.758	0.3678	0.367574	0.00217763	9	7.98911e-06	13	0	1.7751	8.00441e-07
2	1	0	1	0	0	163.555	0.385775	0.385514	0.000809737	9	1.08264e-05	13	0	3.5727	3.12165e-07
2	0	0	1	0	0	165.353	0.40375	0.403452	0.000903639	9	1.35137e-05	13	0	5.3701	3.64575e-07
2	0	0	1	0	0	167.15	0.421725	0.421477	0.00143635	9	1.60562e-05	13	0	7.1677	6.05389e-07
2	1	0	1	0	0	168.948	0.4397	0.4395	0.00192284	9	1.84636e-05	13	0	8.9651	8.45087e-07
2	0	0	1	0	0	170.652	0.443245	0.44294	-0.00102014	9	1.91212e-05	13	0	0.6491	-4.51858e-07
2	0	0	1	0	0	172.45	0.425271	0.425011	-0.00188409	9	1.70535e-05	13	0	2.4466	-8.0076e-07
2	1	0	1	0	0	174.247	0.407295	0.407024	-0.00138866	9	1.47522e-05	13	0	4.2441	-5.65218e-07
2	1	0	1	0	0	176.045	0.38932	0.388989	-0.000778949	9	1.22173e-05	13	0	6.0417	-3.03002e-07
2	0	0	1	0	0	177.842	0.371345	0.371098	-0.00217351	9	9.43702e-06	13	0	7.8391	-8.06587e-07
2	0	0	1	0	0	179.64	0.35337	0.353065	-0.00266054	9	6.38168e-06	13	0	9.6367	-9.39344e-07
2	1	0	1	0	1	181.305	0.363306	0.363042	0.00161394	10	7.87079e-06	13	0	1.2982	5.85926e-07
2	0	0	1	0	1	183.102	0.381281	0.381018	0.00124291	10	1.07331e-05	13	0	3.0958	4.7357e-07
2	1	0	1	0	1	184.9	0.399256	0.399013	0.002025	10	1.34505e-05	13	0	4.8932	8.08e-07
2	1	0	1	0	1	186.697	0.417231	0.41701	0.00080703	10	1.60253e-05	13	0	6.6908	3.3654e-07
2	0	0	1	0	1	188.495	0.435207	0.434967	0.00138188	10	1.84629e-05	13	0	8.4883	6.01074e-07
2	0	0	1	0	1	190.199	0.447739	0.447521	-0.00052577	10	2.01674e-05	13	0	0.2271	-2.35293e-07
2	0	0	1	0	1	191.997	0.429764	0.429522	-0.00162834	10	1.81686e-05	13	0	2.0247	-6.99409e-07
2	0	0	1	0	1	193.794	0.411789	0.411549	-0.00207594	10	1.59212e-05	13	0	3.8221	-8.54351e-07
2	0	0	1	0	1	195.592	0.393814	0.39351	-0.00103932	10	1.34539e-05	13	0	5.6197	-4.08983e-07
2	1	0	1	0	1	197.389	0.375838	0.375575	-0.00150299	10	1.07483e-05	13	0	7.4172	-5.64486e-07
2	1	0	1	0	1	199.187	0.357864	0.35755	-0.00246653	10	7.7757e-06	13	0	9.2147	-8.81907e-07
2	0	0	0	0	1	199.971	0.35	0.349685	-0.00418121	10	6.35646e-06	13	0	9.9986	-1.46211e-06