Folder: SI_for_publications/ACS_Catal_2026/Figures_Na_K/main_figures/data/EC/20251112_2-148_alpha_reproducibility (part 21)

File: 20251112_2-148_004_Na_first_2_K2_02_PEIS_C02.mpt
EC-Lab ASCII FILE
Nb header lines : 63

Potentio Electrochemical Impedance Spectroscopy

Run on channel : 2 (SN 69290)
User :
CE vs. WE compliance from -10 V to 10 V
Electrode connection : standard
Potential control : Ewe
Ewe ctrl range : min = -1.00 V, max = 1.00 V
Safety Limits :
	Do not start on E overload
Acquisition started on : 11/12/2025 17:44:04.753
Loaded Setting File :  C:\Users\User\Documents\EC-Lab\Data\Yatsuzuka\20251112_2-148_alpha_reproducibility\20251112_2-148_002_alpha_reproducibility_2_K1.mps
Saved on :
	File : 20251112_2-148_004_Na_first_2_K2_02_PEIS_C02.mpr
	Directory : C:\Users\User\Documents\EC-Lab\Data\Yatsuzuka\20251112_2-148_alpha_reproducibility\
	Host : 192.109.209.127
Device : SP-150e (SN .003883)
Address : 192.109.209.128
EC-Lab for windows v11.52 (software)
Internet server v11.52 (firmware)
Command interpretor v11.50 (firmware)
Electrode material :
Initial state :
Electrolyte :
Comments :
Electrode surface area : 0.001 cm2
Characteristic mass : 0.001 g
Equivalent Weight : 0.000 g/eq.
Density : 0.000 g/cm3
Volume (V) : 0.001 cm3
Cycle Definition : Charge/Discharge alternance
Mode                Single sine
E (V)               0.4500
vs.                 Ref
tE (h:m:s)          0:00:0.0000
record              0
dI                  0.000
unit dI             mA
dt (s)              0.000
fi                  500.000
unit fi             kHz
ff                  1.000
unit ff             Hz
Nd                  6
Points              per decade
spacing             Logarithmic
Va (mV)             10.0
pw                  0.10
Na                  2
corr                0
E range min (V)     -1.000
E range max (V)     1.000
I Range             Auto
Bandwidth           5
nc cycles           0
goto Ns'            0
nr cycles           0
inc. cycle          0

freq/Hz	Re(Z)/Ohm	-Im(Z)/Ohm	|Z|/Ohm	Phase(Z)/deg	time/s	<Ewe>/V	<I>/mA	Cs/uF	Cp/uF	cycle number	I Range	|Ewe|/V	|I|/A	Ns	(Q-Qo)/mA.h	Re(Y)/Ohm-1	Im(Y)/Ohm-1	|Y|/Ohm-1	Phase(Y)/deg	Re(C)/nF	Im(C)/nF	|C|/nF	Phase(C)/deg	Re(M)	Im(M)	|M|	Phase(M)/deg	Re(Permittivity)	Im(Permittivity)	|Permittivity|	Phase(Permittivity)/deg	Re(Resistivity)/Ohm.cm	Im(Resistivity)/Ohm.cm	|Resistivity|/Ohm.cm	Phase(Resistivity)/deg	Re(Conductivity)/mS/cm	Im(Conductivity)/mS/cm	|Conductivity|/mS/cm	Phase(Conductivity)/deg	Tan(Delta)	Loss Angle(Delta)/deg	dq/mA.h
500019	11.9318	-2.85402	12.2684	13.4521	201.943	0.449791	0.0190185	-0.111526	-0.00603553	1	10	0.00438919	0.000357764	0	3.2596e-05	0.079274	-0.0189619	0.0815102	-13.4521	-6.03553	25.2328	25.9445	-103.452	0.0000000E+000	0.0000000E+000	0.0000000E+000	103.452	0.0000000E+000	0.0000000E+000	0.0000000E+000	-103.452	0.0000000E+000	0.0000000E+000	0.0000000E+000	13.4521	0.0000000E+000	0.0000000E+000	0.0000000E+000	-13.4521	4.18071	76.5479	3.2596e-05
231063	6.09209	-0.952454	6.1661	8.88585	202.651	0.449556	0.0177637	-0.72318	-0.017255	1	10	0.0109228	0.00177143	0	3.43519e-05	0.160231	-0.0250509	0.162177	-8.88585	-17.255	110.366	111.707	-98.8858	0.0000000E+000	0.0000000E+000	0.0000000E+000	98.8858	0.0000000E+000	0.0000000E+000	0.0000000E+000	-98.8858	0.0000000E+000	0.0000000E+000	0.0000000E+000	8.88585	0.0000000E+000	0.0000000E+000	0.0000000E+000	-8.88585	6.3962	81.1142	2.93082e-08
106786	5.42227	-0.233527	5.42729	2.4661	203.631	0.44954	0.017072	-6.38216	-0.0118161	1	10	0.0108581	0.00200065	0	4.3839e-05	0.184083	-0.00792812	0.184254	-2.4661	-11.8161	274.359	274.613	-92.4661	0.0000000E+000	0.0000000E+000	0.0000000E+000	92.4661	0.0000000E+000	0.0000000E+000	0.0000000E+000	-92.4661	0.0000000E+000	0.0000000E+000	0.0000000E+000	2.4661	0.0000000E+000	0.0000000E+000	0.0000000E+000	-2.4661	23.219	87.5339	2.45459e-06
49352.4	5.36267	-0.0698569	5.36313	0.746321	204.475	0.449546	0.0157836	-46.164	-0.00783222	1	10	0.0106229	0.00198072	0	4.97819e-05	0.186442	-0.00242869	0.186458	-0.746321	-7.83223	601.253	601.304	-90.7463	0.0000000E+000	0.0000000E+000	0.0000000E+000	90.7463	0.0000000E+000	0.0000000E+000	0.0000000E+000	-90.7463	0.0000000E+000	0.0000000E+000	0.0000000E+000	0.746321	0.0000000E+000	0.0000000E+000	0.0000000E+000	-0.746321	76.7666	89.2537	1.92399e-06
22806.6	5.34931	-0.0187118	5.34935	0.200418	205.319	0.449556	0.0156699	-372.946	-0.00456324	1	10	0.0104964	0.00196219	0	4.99347e-05	0.186938	-0.000653902	0.186939	-0.200418	-4.5632	1304.54	1304.55	-90.2004	0.0000000E+000	0.0000000E+000	0.0000000E+000	90.2004	0.0000000E+000	0.0000000E+000	0.0000000E+000	-90.2004	0.0000000E+000	0.0000000E+000	0.0000000E+000	0.200418	0.0000000E+000	0.0000000E+000	0.0000000E+000	-0.200418	285.88	89.7996	1.72243e-06
10540.4	5.35126	0.00431071	5.35126	-0.0461546	206.163	0.449557	0.0148196	3502.8	0.002273	1	10	0.0103156	0.00192769	0	5.04647e-05	0.186872	0.000150534	0.186872	0.0461546	2.27316	2821.68	2821.68	-89.9538	0.0000000E+000	0.0000000E+000	0.0000000E+000	89.9538	0.0000000E+000	0.0000000E+000	0.0000000E+000	-89.9538	0.0000000E+000	0.0000000E+000	0.0000000E+000	-0.0461546	0.0000000E+000	0.0000000E+000	0.0000000E+000	0.0461546	1241.39	89.9538	2.81286e-06
4871.56	5.35384	0.0307514	5.35393	-0.329092	207.375	0.449554	0.0171391	1062.4	0.0350487	1	10	0.0101471	0.00189526	0	6.14102e-05	0.186776	0.0010728	0.186779	0.329092	35.0489	6102.01	6102.11	-89.6709	0.0000000E+000	0.0000000E+000	0.0000000E+000	89.6709	0.0000000E+000	0.0000000E+000	0.0000000E+000	-89.6709	0.0000000E+000	0.0000000E+000	0.0000000E+000	-0.329092	0.0000000E+000	0.0000000E+000	0.0000000E+000	0.329092	174.101	89.6709	6.94849e-06
2250.72	5.36563	0.0564872	5.36593	-0.603165	208.527	0.449556	0.0158302	1251.84	0.138726	1	10	0.0101366	0.00188908	0	6.4653e-05	0.186351	0.00196183	0.186361	0.603165	138.726	13177.4	13178.1	-89.3968	0.0000000E+000	0.0000000E+000	0.0000000E+000	89.3968	0.0000000E+000	0.0000000E+000	0.0000000E+000	-89.3968	0.0000000E+000	0.0000000E+000	0.0000000E+000	-0.603165	0.0000000E+000	0.0000000E+000	0.0000000E+000	0.603165	94.9884	89.3968	-6.5128e-07
1040.33	5.3753	0.108247	5.37639	-1.15366	209.457	0.449551	0.0159831	1413.29	0.572907	1	10	0.0103535	0.00192573	0	7.01731e-05	0.185961	0.00374487	0.185998	1.15366	572.907	28449.1	28454.9	-88.8463	0.0000000E+000	0.0000000E+000	0.0000000E+000	88.8463	0.0000000E+000	0.0000000E+000	0.0000000E+000	-88.8463	0.0000000E+000	0.0000000E+000	0.0000000E+000	-1.15366	0.0000000E+000	0.0000000E+000	0.0000000E+000	1.15366	49.6575	88.8463	3.1566e-06
480.769	5.39318	0.221697	5.39773	-2.35393	210.387	0.449547	0.015049	1493.22	2.51896	1	10	0.0104079	0.00192819	0	7.37436e-05	0.185107	0.00760917	0.185263	2.35393	2518.96	61278.1	61329.9	-87.6461	0.0000000E+000	0.0000000E+000	0.0000000E+000	87.6461	0.0000000E+000	0.0000000E+000	0.0000000E+000	-87.6461	0.0000000E+000	0.0000000E+000	0.0000000E+000	-2.35393	0.0000000E+000	0.0000000E+000	0.0000000E+000	2.35393	24.3268	87.6461	1.65328e-06
222.061	5.41626	0.445129	5.43452	-4.69823	211.311	0.449547	0.0158116	1610.14	10.8022	1	10	0.0104163	0.00191669	0	7.72978e-05	0.183391	0.0150718	0.184009	4.69823	10802.2	131439	131883	-85.3018	0.0000000E+000	0.0000000E+000	0.0000000E+000	85.3018	0.0000000E+000	0.0000000E+000	0.0000000E+000	-85.3018	0.0000000E+000	0.0000000E+000	0.0000000E+000	-4.69823	0.0000000E+000	0.0000000E+000	0.0000000E+000	4.69823	12.1678	85.3018	8.07938e-07
102.667	5.46466	0.904173	5.53896	-9.39494	212.248	0.449558	0.016466	1714.49	45.686	1	10	0.0104236	0.00188188	0	8.39318e-05	0.178118	0.029471	0.180539	9.39494	45686	276118	279872	-80.6051	0.0000000E+000	0.0000000E+000	0.0000000E+000	80.6051	0.0000000E+000	0.0000000E+000	0.0000000E+000	-80.6051	0.0000000E+000	0.0000000E+000	0.0000000E+000	-9.39494	0.0000000E+000	0.0000000E+000	0.0000000E+000	9.39494	6.04382	80.6051	3.67027e-06
47.4443	5.54185	1.85816	5.84507	-18.5361	213.159	0.449546	0.0152373	1805.31	182.448	1	10	0.0104286	0.00178416	0	9.02259e-05	0.162209	0.0543881	0.171084	18.5361	182448	544140	573913	-71.4639	0.0000000E+000	0.0000000E+000	0.0000000E+000	71.4639	0.0000000E+000	0.0000000E+000	0.0000000E+000	-71.4639	0.0000000E+000	0.0000000E+000	0.0000000E+000	-18.5361	0.0000000E+000	0.0000000E+000	0.0000000E+000	18.5361	2.98243	71.4639	3.43872e-06
21.9144	5.66349	3.87008	6.85949	-34.3463	214.027	0.449534	0.0131546	1876.59	597.346	1	10	0.0104497	0.00152339	0	9.73874e-05	0.120365	0.0822501	0.145783	34.3463	597346	874158	1.05876e+06	-55.6537	0.0000000E+000	0.0000000E+000	0.0000000E+000	55.6537	0.0000000E+000	0.0000000E+000	0.0000000E+000	-55.6537	0.0000000E+000	0.0000000E+000	0.0000000E+000	-34.3463	0.0000000E+000	0.0000000E+000	0.0000000E+000	34.3463	1.4634	55.6537	5.90533e-06
10.1329	5.90532	8.1514	10.0657	-54.0784	214.954	0.449551	0.0148923	1926.87	1263.66	1	10	0.0104452	0.0010377	0	9.73255e-05	0.0582849	0.0804535	0.0993474	54.0784	1.26366e+06	915462	1.56042e+06	-35.9216	0.0000000E+000	0.0000000E+000	0.0000000E+000	35.9216	0.0000000E+000	0.0000000E+000	0.0000000E+000	-35.9216	0.0000000E+000	0.0000000E+000	0.0000000E+000	-54.0784	0.0000000E+000	0.0000000E+000	0.0000000E+000	54.0784	0.724454	35.9216	-2.86177e-06
4.68375	6.31199	17.0716	18.2011	-69.7088	216.004	0.449556	0.00180881	1990.45	1751.07	1	11	0.0104621	0.000574802	0	0.000106811	0.0190533	0.0515321	0.0549416	69.7088	1.75107e+06	647434	1.86693e+06	-20.2912	0.0000000E+000	0.0000000E+000	0.0000000E+000	20.2912	0.0000000E+000	0.0000000E+000	0.0000000E+000	-20.2912	0.0000000E+000	0.0000000E+000	0.0000000E+000	-69.7088	0.0000000E+000	0.0000000E+000	0.0000000E+000	69.7088	0.369736	20.2912	8.53694e-06
2.16533	7.25128	36.1929	36.9122	-78.6707	217.717	0.449568	0.00203305	2030.83	1952.45	1	11	0.0104566	0.000283283	0	9.83066e-05	0.005322	0.0265634	0.0270913	78.6707	1.95245e+06	391176	1.99126e+06	-11.3293	0.0000000E+000	0.0000000E+000	0.0000000E+000	11.3293	0.0000000E+000	0.0000000E+000	0.0000000E+000	-11.3293	0.0000000E+000	0.0000000E+000	0.0000000E+000	-78.6707	0.0000000E+000	0.0000000E+000	0.0000000E+000	78.6707	0.200351	11.3293	-5.25911e-06
1.00006	9.02351	76.9431	77.4704	-83.3112	222.057	0.449567	0.000217713	2068.34	2040.28	1	12	0.0104566	0.000134976	0	0.000105178	0.0015035	0.0128203	0.0129082	83.3112	2.04028e+06	239274	2.05427e+06	-6.68881	0.0000000E+000	0.0000000E+000	0.0000000E+000	6.68881	0.0000000E+000	0.0000000E+000	0.0000000E+000	-6.68881	0.0000000E+000	0.0000000E+000	0.0000000E+000	-83.3112	0.0000000E+000	0.0000000E+000	0.0000000E+000	83.3112	0.117275	6.68881	5.24498e-06

File: 20251112_2-148_004_Na_first_2_K2_03_CVA_C02.mpt
EC-Lab ASCII FILE
Nb header lines : 66

Cyclic Voltammetry Advanced

Run on channel : 2 (SN 69290)
User :
CE vs. WE compliance from -10 V to 10 V
Electrode connection : standard
Potential control : Ewe
Ewe ctrl range : min = -1.00 V, max = 1.00 V
Safety Limits :
	Do not start on E overload
Acquisition started on : 11/12/2025 17:44:04.753
Loaded Setting File :  C:\Users\User\Documents\EC-Lab\Data\Yatsuzuka\20251112_2-148_alpha_reproducibility\20251112_2-148_002_alpha_reproducibility_2_K1.mps
Saved on :
	File : 20251112_2-148_004_Na_first_2_K2_03_CVA_C02.mpr
	Directory : C:\Users\User\Documents\EC-Lab\Data\Yatsuzuka\20251112_2-148_alpha_reproducibility\
	Host : 192.109.209.127
Device : SP-150e (SN .003883)
Address : 192.109.209.128
EC-Lab for windows v11.52 (software)
Internet server v11.52 (firmware)
Command interpretor v11.50 (firmware)
Electrode material :
Initial state :
Electrolyte :
Comments :
Electrode surface area : 0.001 cm2
Characteristic mass : 0.001 g
Equivalent Weight : 0.000 g/eq.
Density : 0.000 g/cm3
Volume (V) : 0.001 cm3
Cycle Definition : Charge/Discharge alternance
Ei (V)              0.450
vs.                 Ref
ti (h:m:s)          0:00:10.0000
dti (s)             0.0000
dE/dt               5.000
dE/dt unit          mV/s
E1 (V)              0.700
vs.                 Ref
t1 (h:m:s)          0:00:0.0000
dt1 (s)             0.1000
Step percent        50
N                   10
E range min (V)     -1.000
E range max (V)     1.000
I Range             10 mA
I Range min         Unset
I Range max         Unset
I Range init        Unset
Bandwidth           5
E2 (V)              0.450
vs.                 Ref
t2 (h:m:s)          0:00:0.0000
dt2 (s)             0.1000
nc cycles           14
nr                  1
Reverse Scan        0
Ef (V)              0.000
vs.                 Eoc
tf (h:m:s)          0:00:0.0000
dtf (s)             0.1000

mode	ox/red	error	control changes	Ns changes	counter inc.	time/s	control/V	Ewe/V	<I>/mA	cycle number	(Q-Qo)/C	I Range	Ns	step time/s	P/W
2	1	0	0	0	0	232.186	0.450021	0.449554	0.00989032	1	0.0000000E+000	11	0	0.000000000000000E+000	4.44623e-06
2	1	0	1	0	0	244.926	0.51372	0.51324	0.0132151	1	0.000162102	11	0	12.685	6.78253e-06
2	1	0	1	0	0	257.711	0.577644	0.577186	0.0181565	1	0.000342859	11	0	25.4698	1.04797e-05
2	1	0	1	0	0	270.496	0.641569	0.641109	0.185216	1	0.00113887	11	0	38.2547	0.000118744
2	1	0	1	0	0	283.032	0.695754	0.695334	1.52105	1	0.0116459	11	0	50.7902	0.00105764
2	1	0	1	0	0	295.816	0.63183	0.631403	0.0964547	1	0.0191262	11	0	63.575	6.09017e-05
2	1	0	1	0	0	308.601	0.567906	0.567444	-0.00376734	1	0.0194084	11	0	1.9976	-2.13776e-06
2	1	0	1	0	0	321.386	0.503981	0.503549	-0.00832528	1	0.0193134	11	0	14.7825	-4.19219e-06
2	1	0	0	0	1	333.94	0.458835	0.458364	0.0114493	2	0.019226	11	0	1.753	5.24796e-06
2	0	0	0	0	1	346.725	0.522759	0.522326	0.0112089	2	0.0193781	11	0	14.5378	5.85473e-06
2	1	0	1	0	1	359.51	0.586684	0.586237	0.0213433	2	0.0195608	11	0	27.3227	1.25123e-05
2	1	0	1	0	1	372.295	0.650607	0.650189	0.283021	2	0.020723	11	0	40.1075	0.000184017
2	1	0	0	0	1	384.82	0.686765	0.686314	1.12143	2	0.0331514	11	0	52.633	0.000769653
2	1	0	1	0	1	397.605	0.62284	0.622451	0.0571492	2	0.0384078	11	0	65.4179	3.55726e-05
2	0	0	1	0	1	410.39	0.558916	0.558468	-0.00517254	2	0.0385428	11	0	4.0951	-2.8887e-06
2	0	0	1	0	1	423.175	0.494992	0.494544	-0.00889834	2	0.03844	11	0	16.88	-4.40062e-06
2	1	0	1	0	0	435.729	0.467825	0.467367	0.0119402	3	0.0383899	11	0	3.5509	5.58045e-06
2	0	0	1	0	0	448.514	0.531748	0.531319	0.0114878	3	0.0385414	11	0	16.3357	6.10367e-06
2	1	0	0	0	0	461.299	0.595673	0.595224	0.0262122	3	0.0387431	11	0	29.1206	1.56022e-05
2	1	0	0	0	0	474.084	0.659597	0.659136	0.427883	3	0.0404914	11	0	41.9054	0.000282033
2	1	0	1	0	0	486.609	0.677775	0.677345	0.816607	3	0.0540364	11	0	54.4309	0.000553125
2	1	0	1	0	0	499.394	0.613852	0.613416	0.0316425	3	0.0575777	11	0	67.2157	1.941e-05
2	1	0	0	0	0	512.179	0.549927	0.549476	-0.00623101	3	0.0576222	11	0	5.6933	-3.42379e-06
2	0	0	0	0	0	524.964	0.486003	0.485547	-0.00980886	3	0.0575136	11	0	18.4781	-4.76267e-06
2	1	0	1	0	1	537.518	0.476813	0.476352	0.0122337	4	0.0575019	11	0	5.2937	5.82753e-06
2	0	0	1	0	1	550.303	0.540738	0.5403	0.0114776	4	0.057653	11	0	18.0786	6.20134e-06
2	1	0	1	0	1	563.088	0.604662	0.604186	0.0354999	4	0.0578862	11	0	30.8634	2.14486e-05
2	1	0	1	0	1	575.873	0.668587	0.668149	0.625149	4	0.0605198	11	0	43.6483	0.000417692
2	1	0	1	0	1	588.398	0.668786	0.668283	0.581297	4	0.0744931	11	0	56.1738	0.000388471
2	1	0	1	0	1	601.183	0.604862	0.604433	0.0161168	4	0.0768366	11	0	68.9586	9.74153e-06
2	0	0	1	0	1	613.968	0.540937	0.540466	-0.00782165	4	0.0768255	11	0	7.7908	-4.22733e-06
2	1	0	1	0	1	626.753	0.477013	0.476537	-0.00939244	4	0.076713	11	0	20.5756	-4.47584e-06
2	0	0	0	0	0	639.307	0.485803	0.485345	0.0110758	5	0.0767398	11	0	7.0916	5.37556e-06
2	1	0	1	0	0	652.092	0.549728	0.549268	0.0127344	5	0.0768924	11	0	19.8765	6.9946e-06
2	1	0	1	0	0	664.877	0.613651	0.613199	0.0501308	5	0.0771774	11	0	32.6613	3.07401e-05
2	1	0	1	0	0	677.661	0.677575	0.677087	0.877975	5	0.0810711	11	0	45.4461	0.000594465
2	1	0	0	0	0	690.187	0.659797	0.659363	0.399546	5	0.0945083	11	0	57.9716	0.000263446
2	1	0	1	0	0	702.972	0.595872	0.595451	0.00760804	5	0.0960029	11	0	70.7565	4.53021e-06
2	0	0	1	0	0	715.757	0.531948	0.531492	-0.00847152	5	0.0959572	11	0	9.5886	-4.50255e-06
2	1	0	1	0	0	728.542	0.468024	0.467603	-0.00932719	5	0.095841	11	0	22.3735	-4.36142e-06
2	1	0	1	0	1	741.096	0.494793	0.494326	0.0109129	6	0.0959076	11	0	8.8895	5.39453e-06
2	1	0	1	0	1	753.881	0.558716	0.558242	0.0131432	6	0.0960625	11	0	21.6743	7.33708e-06
2	1	0	0	0	1	766.666	0.622641	0.622213	0.0738907	6	0.0964317	11	0	34.4592	4.59757e-05
2	1	0	0	0	1	779.45	0.686565	0.686129	1.18221	6	0.102033	11	0	47.244	0.000811151
2	1	0	1	0	1	791.976	0.650807	0.65033	0.261436	6	0.11415	11	0	59.7695	0.00017002
2	1	0	1	0	1	804.761	0.586884	0.586461	0.00151021	6	0.115058	11	0	72.5543	8.85682e-07
2	0	0	0	0	1	817.546	0.522959	0.522511	-0.00854058	6	0.11499	11	0	11.2866	-4.46254e-06
2	0	0	0	0	1	830.33	0.459035	0.458564	-0.0108958	6	0.11487	11	0	24.0714	-4.9964e-06
2	1	0	1	0	0	842.885	0.503781	0.503339	0.0118118	7	0.114976	11	0	10.6873	5.94536e-06
2	1	0	1	0	0	855.67	0.567706	0.56726	0.0142042	7	0.115134	11	0	23.4722	8.05749e-06
2	1	0	1	0	0	868.454	0.63163	0.63123	0.111044	7	0.11564	11	0	36.257	7.00945e-05
2	1	0	1	0	0	881.239	0.695555	0.695097	1.56174	7	0.123503	11	0	49.0419	0.00108556
2	1	0	1	0	0	893.765	0.641818	0.641384	0.164975	7	0.133594	11	0	61.5674	0.000105813
2	1	0	1	0	0	906.55	0.577894	0.577446	-0.0011784	7	0.134122	11	0	0.3995	-6.80463e-07
2	0	0	1	0	0	919.334	0.513969	0.513504	-0.00832107	7	0.134039	11	0	13.1844	-4.2729e-06
2	1	0	0	0	0	932.094	0.45017	0.449775	-0.00307176	7	0.133915	11	0	25.9443	-1.3816e-06
2	0	0	0	0	1	944.674	0.512771	0.51232	0.0108555	8	0.13406	11	0	12.4852	5.56149e-06
2	1	0	1	0	1	957.458	0.576696	0.576273	0.0161709	8	0.134226	11	0	25.2701	9.31883e-06
2	1	0	1	0	1	970.243	0.640619	0.640164	0.172734	8	0.134953	11	0	38.0549	0.000110578
2	1	0	0	0	1	982.769	0.696753	0.696307	1.54567	8	0.145125	11	0	50.5804	0.00107626
2	1	0	0	0	1	995.554	0.632829	0.632381	0.099904	8	0.15287	11	0	63.3652	6.31774e-05
2	1	0	1	0	1	1008.34	0.568904	0.568492	-0.00341927	8	0.153156	11	0	2.3972	-1.94383e-06
[...]
2	1	0	1	0	1	1199.13	0.61485	0.614403	0.0325584	10	0.190695	11	0	67.016	2.0004e-05
2	1	0	1	0	1	1211.92	0.550926	0.550482	-0.00564264	10	0.19074	11	0	5.893	-3.10617e-06
2	0	0	1	0	1	1224.7	0.487001	0.486561	-0.00985839	10	0.190633	11	0	18.6779	-4.79671e-06
2	1	0	0	0	0	1237.26	0.475815	0.475388	0.0120436	11	0.190618	11	0	5.149	5.72538e-06
2	1	0	0	0	0	1250.04	0.539739	0.539301	0.0121316	11	0.190768	11	0	17.9338	6.54258e-06
2	1	0	1	0	0	1262.83	0.603664	0.603252	0.0326239	11	0.19099	11	0	30.7187	1.96804e-05
2	1	0	1	0	0	1275.61	0.667587	0.667142	0.575588	11	0.19342	11	0	43.5035	0.000383999
2	1	0	0	0	0	1288.14	0.669785	0.66933	0.571697	11	0.2067	11	0	56.029	0.000382654
2	1	0	0	0	0	1300.92	0.605861	0.605415	0.0166774	11	0.209053	11	0	68.8138	1.00968e-05
2	0	0	1	0	0	1313.71	0.541936	0.54151	-0.00723879	11	0.209041	11	0	7.591	-3.91988e-06
2	0	0	1	0	0	1326.49	0.478013	0.477615	-0.00923165	11	0.20893	11	0	20.3758	-4.40917e-06
2	1	0	1	0	1	1339.04	0.484804	0.484308	0.012154	12	0.208953	11	0	6.8918	5.8863e-06
2	0	0	1	0	1	1351.83	0.548729	0.548263	0.0117622	12	0.209104	11	0	19.6767	6.44881e-06
2	1	0	1	0	1	1364.61	0.612652	0.612254	0.0447509	12	0.209373	11	0	32.4615	2.73989e-05
2	1	0	0	0	1	1377.4	0.676577	0.676114	0.816684	12	0.212975	11	0	45.2464	0.000552172
2	1	0	1	0	1	1389.92	0.660795	0.660349	0.401046	12	0.225882	11	0	57.7719	0.00026483
2	1	0	1	0	1	1402.71	0.596871	0.596419	0.00766193	12	0.227382	11	0	70.5567	4.56972e-06
2	1	0	0	0	1	1415.49	0.532947	0.532445	-0.00730651	12	0.227336	11	0	9.3889	-3.89032e-06
2	0	0	0	0	1	1428.28	0.469023	0.468549	-0.0106922	12	0.227221	11	0	22.1737	-5.0098e-06
2	1	0	1	0	0	1440.83	0.493793	0.49333	0.0113699	13	0.227283	11	0	8.7447	5.60913e-06
2	1	0	1	0	0	1453.62	0.557717	0.557219	0.0126144	13	0.227436	11	0	21.5295	7.02899e-06
2	1	0	1	0	0	1466.4	0.621642	0.621201	0.0671695	13	0.22778	11	0	34.3144	4.17257e-05
2	1	0	1	0	0	1479.19	0.685567	0.685151	1.11457	13	0.233021	11	0	47.0993	0.000763647
2	1	0	1	0	0	1491.71	0.651807	0.651297	0.268867	13	0.244901	11	0	59.6247	0.000175112
2	1	0	1	0	0	1504.5	0.587882	0.587416	0.00139047	13	0.245824	11	0	72.4096	8.16785e-07
2	0	0	1	0	0	1517.28	0.523958	0.523508	-0.00878642	13	0.245756	11	0	11.4864	-4.59976e-06
2	0	0	1	0	0	1530.07	0.460033	0.459599	-0.0101442	13	0.245638	11	0	24.2713	-4.66228e-06
2	1	0	0	0	1	1542.62	0.502783	0.502358	0.0111324	14	0.245739	11	0	10.5426	5.59246e-06
2	0	0	0	0	1	1555.41	0.566707	0.566233	0.0137759	14	0.245896	11	0	23.3274	7.80036e-06
2	1	0	1	0	1	1568.19	0.630632	0.630217	0.102142	14	0.246364	11	0	36.1123	6.43717e-05
2	1	0	1	0	1	1580.98	0.694555	0.694105	1.48615	14	0.253901	11	0	48.8971	0.00103155
2	1	0	0	0	1	1593.5	0.642817	0.642391	0.167952	14	0.264032	11	0	61.4226	0.000107891
2	1	0	1	0	1	1606.29	0.578892	0.578429	-0.000994068	14	0.264565	11	0	0.2997	-5.74997e-07
2	0	0	1	0	1	1619.07	0.514968	0.514507	-0.00908358	14	0.264483	11	0	13.0845	-4.67356e-06
2	1	0	1	0	1	1631.86	0.451045	0.450583	-0.0101103	14	0.264361	11	0	25.8693	-4.55551e-06
2	1	0	1	0	0	1644.41	0.511772	0.511347	0.0112246	15	0.264502	11	0	12.2854	5.73965e-06
2	0	0	1	0	0	1657.2	0.575696	0.575251	0.0152929	15	0.264665	11	0	25.0703	8.79725e-06
2	1	0	1	0	0	1669.98	0.63962	0.63919	0.159238	15	0.265333	11	0	37.8551	0.000101783
2	1	0	1	0	0	1682.51	0.697752	0.69728	1.59496	15	0.275081	11	0	50.3806	0.00111213
2	1	0	1	0	0	1695.29	0.633827	0.633362	0.0994791	15	0.282977	11	0	63.1655	6.30063e-05
2	0	0	1	0	0	1708.08	0.569903	0.569475	-0.00428659	15	0.283261	11	0	2.497	-2.44111e-06
2	1	0	0	0	0	1720.86	0.505979	0.505521	-0.00826913	15	0.283169	11	0	15.2819	-4.18022e-06
2	0	0	1	0	0	1732.05	0.450021	0.449554	-0.0112347	15	0.28306	11	0	26.4727	-5.0506e-06