Folder: SI_for_publications/ACS_Catal_2026/Figures_Na_K/main_figures/data/EC/20251112_2-148_alpha_reproducibility (part 19)

File: 20251112_2-148_004_Na_first_2_K1_01_CVA_C02.mpt
EC-Lab ASCII FILE
Nb header lines : 66

Cyclic Voltammetry Advanced

Run on channel : 2 (SN 69290)
User :
CE vs. WE compliance from -10 V to 10 V
Electrode connection : standard
Potential control : Ewe
Ewe ctrl range : min = -1.00 V, max = 1.00 V
Safety Limits :
	Do not start on E overload
Acquisition started on : 11/12/2025 16:20:32.186
Loaded Setting File :  C:\Users\User\Documents\EC-Lab\Data\Yatsuzuka\20251112_2-148_alpha_reproducibility\20251112_2-148_002_alpha_reproducibility_2_K1.mps
Saved on :
	File : 20251112_2-148_004_Na_first_2_K1_01_CVA_C02.mpr
	Directory : C:\Users\User\Documents\EC-Lab\Data\Yatsuzuka\20251112_2-148_alpha_reproducibility\
	Host : 192.109.209.127
Device : SP-150e (SN .003883)
Address : 192.109.209.128
EC-Lab for windows v11.52 (software)
Internet server v11.52 (firmware)
Command interpretor v11.50 (firmware)
Electrode material :
Initial state :
Electrolyte :
Comments :
Electrode surface area : 0.001 cm2
Characteristic mass : 0.001 g
Equivalent Weight : 0.000 g/eq.
Density : 0.000 g/cm3
Volume (V) : 0.001 cm3
Cycle Definition : Charge/Discharge alternance
Ei (V)              0.350
vs.                 Ref
ti (h:m:s)          0:00:10.0000
dti (s)             0.0000
dE/dt               10.000
dE/dt unit          mV/s
E1 (V)              0.450
vs.                 Ref
t1 (h:m:s)          0:00:0.0000
dt1 (s)             0.1000
Step percent        50
N                   10
E range min (V)     -1.000
E range max (V)     1.000
I Range             Auto
I Range min         Unset
I Range max         Unset
I Range init        Unset
Bandwidth           5
E2 (V)              0.350
vs.                 Ref
t2 (h:m:s)          0:00:0.0000
dt2 (s)             0.1000
nc cycles           9
nr                  1
Reverse Scan        0
Ef (V)              0.000
vs.                 Eoc
tf (h:m:s)          0:00:0.0000
dtf (s)             0.1000

mode	ox/red	error	control changes	Ns changes	counter inc.	time/s	control/V	Ewe/V	<I>/mA	cycle number	(Q-Qo)/C	I Range	Ns	step time/s	P/W
2	1	0	0	0	0	0.000000000000000E+000	0.349989	0.34961	0.0219797	1	0.0000000E+000	12	0	0.000000000000000E+000	7.68431e-06
2	1	0	1	0	0	1.7255	0.367244	0.366764	0.0252382	1	6.17497e-05	12	0	1.698	9.25646e-06
2	1	0	1	0	0	3.4735	0.384723	0.384313	0.0231303	1	0.000122238	12	0	3.446	8.88925e-06
2	1	0	1	0	0	5.2214	0.402202	0.401816	0.0237339	1	0.00017862	12	0	5.1939	9.53668e-06
2	1	0	1	0	0	6.9693	0.419681	0.419216	0.0227917	1	0.000231067	12	0	6.9418	9.55465e-06
2	1	0	1	0	0	8.7173	0.437161	0.436698	0.0183939	1	0.000280413	12	0	8.6898	8.03258e-06
2	0	0	1	0	0	10.376	0.44625	0.445783	-0.0307584	1	0.000307875	12	0	0.3496	-1.37116e-05
2	0	0	1	0	0	12.1239	0.428771	0.428287	-0.0284893	1	0.000266819	12	0	2.0975	-1.22016e-05
2	0	0	1	0	0	13.8719	0.411291	0.410836	-0.0211719	1	0.000220189	12	0	3.8455	-8.69819e-06
2	0	0	1	0	0	15.6198	0.393812	0.393374	-0.0229737	1	0.000168515	12	0	5.5934	-9.03724e-06
2	0	0	1	0	0	17.3677	0.376333	0.375941	-0.0346321	1	0.000111201	12	0	7.3413	-1.30196e-05
2	0	0	1	0	0	19.1157	0.358854	0.358437	-0.0453118	1	4.7668e-05	12	0	9.0893	-1.62414e-05
2	1	0	1	0	1	20.7303	0.357305	0.356842	0.0442535	2	3.56924e-05	12	0	0.6992	1.57915e-05
2	1	0	1	0	1	22.4783	0.374785	0.374383	0.0271662	2	9.6559e-05	12	0	2.4472	1.01706e-05
2	1	0	1	0	1	24.2262	0.392265	0.391816	0.0224293	2	0.000154361	12	0	4.1951	8.78815e-06
2	1	0	1	0	1	25.9741	0.409743	0.409287	0.0334981	2	0.000208236	12	0	5.943	1.37103e-05
2	1	0	1	0	1	27.7221	0.427222	0.426763	0.0362863	2	0.000258486	12	0	7.691	1.54857e-05
2	1	0	1	0	1	29.4699	0.444702	0.444291	0.0206153	2	0.000306017	12	0	9.4388	9.1592e-06
2	0	0	1	0	1	31.1237	0.438759	0.438301	-0.0332287	2	0.000296031	12	0	1.0987	-1.45642e-05
2	0	0	1	0	1	32.8717	0.42128	0.420795	-0.0170102	2	0.000252277	12	0	2.8467	-7.15782e-06
2	0	0	1	0	1	34.6196	0.4038	0.403351	-0.0358207	2	0.00020359	12	0	4.5946	-1.44483e-05
2	0	0	1	0	1	36.3675	0.386321	0.385864	-0.0303858	2	0.000149856	12	0	6.3425	-1.17248e-05
2	0	0	1	0	1	38.1155	0.368842	0.368416	-0.0354674	2	8.99454e-05	12	0	8.0905	-1.30668e-05
2	0	0	1	0	1	39.8633	0.351362	0.350937	-0.0517717	2	2.35889e-05	12	0	9.8383	-1.81686e-05
2	1	0	1	0	0	41.4781	0.364796	0.364367	0.0449261	3	6.74121e-05	12	0	1.4484	1.63696e-05
2	1	0	1	0	0	43.2259	0.382276	0.381822	0.0371653	3	0.000126732	12	0	3.1962	1.41905e-05
2	1	0	1	0	0	44.9739	0.399755	0.399314	0.0215463	3	0.000182592	12	0	4.9442	8.60376e-06
2	0	0	1	0	0	46.7218	0.417233	0.416787	0.0297281	3	0.000234624	12	0	6.6921	1.23903e-05
2	1	0	1	0	0	48.4697	0.434714	0.434224	0.0369902	3	0.000283482	12	0	8.44	1.6062e-05
2	0	0	1	0	0	50.1235	0.448747	0.448265	-0.0187364	3	0.000322333	12	0	0.0999	-8.39885e-06
2	0	0	1	0	0	51.8715	0.431268	0.4308	-0.0236073	3	0.000282218	12	0	1.8479	-1.017e-05
2	0	0	1	0	0	53.6193	0.413788	0.413337	-0.0188725	3	0.000236274	12	0	3.5957	-7.80071e-06
2	0	0	1	0	0	55.3673	0.396309	0.395827	-0.021773	3	0.00018564	12	0	5.3437	-8.61835e-06
2	0	0	1	0	0	57.1152	0.378831	0.378359	-0.0359236	3	0.000129477	12	0	7.0916	-1.3592e-05
2	0	0	1	0	0	58.8631	0.361351	0.360917	-0.0477886	3	6.72534e-05	12	0	8.8395	-1.72477e-05
2	0	0	1	0	1	60.4778	0.354807	0.35441	0.0391932	4	3.75474e-05	12	0	0.4495	1.38905e-05
2	1	0	1	0	1	62.2257	0.372288	0.371871	0.0443583	4	9.81818e-05	12	0	2.1974	1.64956e-05
2	1	0	1	0	1	63.9737	0.389767	0.389297	0.0373802	4	0.000155873	12	0	3.9454	1.4552e-05
2	1	0	1	0	1	65.7216	0.407246	0.406806	0.0218331	4	0.000210077	12	0	5.6933	8.88183e-06
2	1	0	1	0	1	67.4695	0.424725	0.42429	0.0343238	4	0.000260381	12	0	7.4412	1.45633e-05
2	1	0	1	0	1	69.2175	0.442205	0.441791	0.0249327	4	0.000308264	12	0	9.1892	1.1015e-05
2	0	0	1	0	1	70.8712	0.441256	0.4408	-0.0151359	4	0.000310423	12	0	0.7991	-6.67192e-06
2	0	0	1	0	1	72.6191	0.423777	0.423296	-0.0262917	4	0.000267663	12	0	2.547	-1.11292e-05
2	0	0	1	0	1	74.3671	0.406297	0.405809	-0.0385832	4	0.000219782	12	0	4.295	-1.56574e-05
2	0	0	1	0	1	76.115	0.388818	0.388339	-0.0368838	4	0.000166826	12	0	6.0429	-1.43234e-05
2	0	0	1	0	1	77.8629	0.371339	0.370886	-0.0301492	4	0.000108224	12	0	7.7908	-1.11819e-05
2	0	0	1	0	1	79.6109	0.353859	0.353435	-0.0303368	4	4.3249e-05	12	0	9.5388	-1.07221e-05
2	1	0	1	0	0	81.2255	0.362299	0.361863	0.0368549	5	6.84946e-05	12	0	1.1986	1.33364e-05
2	1	0	1	0	0	82.9735	0.379779	0.37935	0.034627	5	0.000128054	12	0	2.9466	1.31357e-05
2	1	0	1	0	0	84.7214	0.397258	0.396806	0.0404787	5	0.000184222	12	0	4.6945	1.60622e-05
2	1	0	1	0	0	86.4693	0.414737	0.414283	0.0366133	5	0.000236446	12	0	6.4424	1.51683e-05
2	1	0	1	0	0	88.2173	0.432217	0.431723	0.0205496	5	0.000285674	12	0	8.1904	8.87172e-06
2	1	0	1	0	0	89.9934	0.450021	0.449573	0.0207266	5	0.00033217	12	0	9.9665	9.31812e-06
2	1	0	1	0	0	91.7188	0.432766	0.432313	-0.0211591	5	0.000293667	12	0	1.698	-9.14735e-06
2	0	0	1	0	0	93.4667	0.415287	0.414779	-0.0350433	5	0.000248401	12	0	3.4459	-1.45352e-05
2	0	0	1	0	0	95.2147	0.397807	0.397344	-0.0241255	5	0.000198307	12	0	5.1939	-9.58614e-06
2	0	0	1	0	0	96.9626	0.380328	0.37983	-0.0380635	5	0.000142996	12	0	6.9418	-1.44577e-05
2	0	0	1	0	0	98.7105	0.362849	0.362411	-0.0387942	5	8.12883e-05	12	0	8.6897	-1.40594e-05
2	1	0	1	0	1	100.325	0.35331	0.352942	0.0333626	6	4.11212e-05	12	0	0.2997	1.17751e-05
2	1	0	1	0	1	102.073	0.370789	0.370397	0.0299385	6	0.000101692	12	0	2.0476	1.10891e-05
2	1	0	1	0	1	103.821	0.388269	0.387869	0.0215322	6	0.00015973	12	0	3.7956	8.35169e-06
[...]
2	1	0	1	0	0	129.812	0.448198	0.447715	0.03546	7	0.000336363	12	0	9.7384	1.5876e-05
2	0	0	1	0	0	131.466	0.435263	0.434759	-0.0182474	7	0.000308693	12	0	1.4483	-7.93321e-06
2	0	0	1	0	0	133.214	0.417784	0.417339	-0.0325846	7	0.000264396	12	0	3.1963	-1.35988e-05
2	0	0	1	0	0	134.962	0.400304	0.399869	-0.032116	7	0.000214962	12	0	4.9441	-1.28422e-05
2	0	0	1	0	0	136.71	0.382825	0.382409	-0.0354422	7	0.000160686	12	0	6.6921	-1.35534e-05
2	0	0	1	0	0	138.458	0.365347	0.36487	-0.0307622	7	0.000100088	12	0	8.44	-1.12242e-05
2	1	0	1	0	1	140.073	0.350813	0.350319	0.0397954	8	4.29104e-05	12	0	0.05	1.39411e-05
2	1	0	1	0	1	141.821	0.368291	0.367845	0.0277045	8	0.000102949	12	0	1.7979	1.0191e-05
2	1	0	1	0	1	143.568	0.385772	0.385329	0.0226604	8	0.000161222	12	0	3.5458	8.73172e-06
2	1	0	1	0	1	145.316	0.403251	0.402809	0.0297528	8	0.00021573	12	0	5.2938	1.19847e-05
2	1	0	1	0	1	147.064	0.42073	0.420258	0.0241877	8	0.000266781	12	0	7.0417	1.01651e-05
2	1	0	1	0	1	148.812	0.438209	0.437716	0.0181309	8	0.000314602	12	0	8.7896	7.93618e-06
2	0	0	1	0	1	150.466	0.445251	0.444828	-0.0139139	8	0.000336385	12	0	0.4495	-6.18927e-06
2	0	0	1	0	1	152.214	0.427772	0.427279	-0.0266094	8	0.000295014	12	0	2.1974	-1.13696e-05
2	0	0	1	0	1	153.962	0.410293	0.409797	-0.0371202	8	0.000248419	12	0	3.9453	-1.52118e-05
2	0	0	1	0	1	155.71	0.392813	0.392332	-0.0393712	8	0.000197142	12	0	5.6933	-1.54466e-05
2	0	0	1	0	1	157.458	0.375334	0.374896	-0.0271411	8	0.000140318	12	0	7.4412	-1.01751e-05
2	0	0	1	0	1	159.206	0.357855	0.357425	-0.0485909	8	7.72006e-05	12	0	9.1891	-1.73676e-05
2	1	0	1	0	0	160.82	0.358304	0.357841	0.0371035	9	7.30255e-05	12	0	0.7991	1.32772e-05
2	1	0	1	0	0	162.568	0.375783	0.375324	0.0362073	9	0.000133329	12	0	2.547	1.35895e-05
2	1	0	1	0	0	164.316	0.393263	0.392846	0.0219234	9	0.000189842	12	0	4.295	8.61254e-06
2	1	0	1	0	0	166.064	0.410742	0.410265	0.0350881	9	0.000242634	12	0	6.0429	1.43954e-05
2	0	0	1	0	0	167.812	0.428221	0.427771	0.0316879	9	0.000292341	12	0	7.7908	1.35552e-05
2	1	0	1	0	0	169.56	0.445701	0.445212	0.0185176	9	0.000338978	12	0	9.5388	8.24426e-06
2	0	0	1	0	0	171.214	0.43776	0.43729	-0.0324103	9	0.000323971	12	0	1.1986	-1.41727e-05
2	0	0	1	0	0	172.962	0.420281	0.419831	-0.0199206	9	0.000280131	12	0	2.9465	-8.36328e-06
2	0	0	1	0	0	174.71	0.402801	0.402341	-0.0199574	9	0.000231824	12	0	4.6945	-8.02967e-06
2	0	0	1	0	0	176.458	0.385322	0.38488	-0.0391116	9	0.000178353	12	0	6.4424	-1.50533e-05
2	0	0	1	0	0	178.205	0.367843	0.367406	-0.0419516	9	0.000118874	12	0	8.1903	-1.54133e-05
2	0	0	1	0	0	179.953	0.350364	0.349909	-0.0322327	9	5.28684e-05	12	0	9.9383	-1.12785e-05
2	1	0	1	0	1	181.568	0.365795	0.365326	0.0363578	10	0.000103976	12	0	1.5482	1.32825e-05
2	1	0	1	0	1	183.316	0.383275	0.382843	0.0392532	10	0.000162717	12	0	3.2962	1.50278e-05
2	1	0	1	0	1	185.064	0.400755	0.400348	0.0379693	10	0.000217839	12	0	5.0441	1.52009e-05
2	1	0	1	0	1	186.812	0.418233	0.417748	0.0268113	10	0.000269155	12	0	6.792	1.12004e-05
2	1	0	1	0	1	188.56	0.435712	0.435247	0.0241496	10	0.000317348	12	0	8.54	1.05111e-05
2	0	0	1	0	1	190.214	0.447748	0.447344	-0.0135711	10	0.000350836	12	0	0.1998	-6.07095e-06
2	0	0	1	0	1	191.961	0.430269	0.429791	-0.0163058	10	0.000310418	12	0	1.9477	-7.00806e-06
2	0	0	1	0	1	193.709	0.41279	0.412319	-0.0189888	10	0.000264712	12	0	3.6957	-7.82942e-06
2	0	0	1	0	1	195.457	0.395309	0.394839	-0.0214893	10	0.00021423	12	0	5.4436	-8.48483e-06
2	0	0	1	0	1	197.205	0.377831	0.377402	-0.0259986	10	0.000158483	12	0	7.1915	-9.81189e-06
2	0	0	1	0	1	198.953	0.360352	0.359851	-0.0361843	10	9.64855e-05	12	0	8.9395	-1.3021e-05
2	0	0	0	0	1	199.986	0.349989	0.34961	-0.0692983	10	5.65102e-05	12	0	9.9722	-2.42274e-05

File: 20251112_2-148_004_Na_first_2_K1_02_PEIS_C02.mpt
EC-Lab ASCII FILE
Nb header lines : 63

Potentio Electrochemical Impedance Spectroscopy

Run on channel : 2 (SN 69290)
User :
CE vs. WE compliance from -10 V to 10 V
Electrode connection : standard
Potential control : Ewe
Ewe ctrl range : min = -1.00 V, max = 1.00 V
Safety Limits :
	Do not start on E overload
Acquisition started on : 11/12/2025 16:20:32.186
Loaded Setting File :  C:\Users\User\Documents\EC-Lab\Data\Yatsuzuka\20251112_2-148_alpha_reproducibility\20251112_2-148_002_alpha_reproducibility_2_K1.mps
Saved on :
	File : 20251112_2-148_004_Na_first_2_K1_02_PEIS_C02.mpr
	Directory : C:\Users\User\Documents\EC-Lab\Data\Yatsuzuka\20251112_2-148_alpha_reproducibility\
	Host : 192.109.209.127
Device : SP-150e (SN .003883)
Address : 192.109.209.128
EC-Lab for windows v11.52 (software)
Internet server v11.52 (firmware)
Command interpretor v11.50 (firmware)
Electrode material :
Initial state :
Electrolyte :
Comments :
Electrode surface area : 0.001 cm2
Characteristic mass : 0.001 g
Equivalent Weight : 0.000 g/eq.
Density : 0.000 g/cm3
Volume (V) : 0.001 cm3
Cycle Definition : Charge/Discharge alternance
Mode                Single sine
E (V)               0.4500
vs.                 Ref
tE (h:m:s)          0:00:0.0000
record              0
dI                  0.000
unit dI             mA
dt (s)              0.000
fi                  500.000
unit fi             kHz
ff                  1.000
unit ff             Hz
Nd                  6
Points              per decade
spacing             Logarithmic
Va (mV)             10.0
pw                  0.10
Na                  2
corr                0
E range min (V)     -1.000
E range max (V)     1.000
I Range             Auto
Bandwidth           5
nc cycles           0
goto Ns'            0
nr cycles           0
inc. cycle          0

freq/Hz	Re(Z)/Ohm	-Im(Z)/Ohm	|Z|/Ohm	Phase(Z)/deg	time/s	<Ewe>/V	<I>/mA	Cs/uF	Cp/uF	cycle number	I Range	|Ewe|/V	|I|/A	Ns	(Q-Qo)/mA.h	Re(Y)/Ohm-1	Im(Y)/Ohm-1	|Y|/Ohm-1	Phase(Y)/deg	Re(C)/nF	Im(C)/nF	|C|/nF	Phase(C)/deg	Re(M)	Im(M)	|M|	Phase(M)/deg	Re(Permittivity)	Im(Permittivity)	|Permittivity|	Phase(Permittivity)/deg	Re(Resistivity)/Ohm.cm	Im(Resistivity)/Ohm.cm	|Resistivity|/Ohm.cm	Phase(Resistivity)/deg	Re(Conductivity)/mS/cm	Im(Conductivity)/mS/cm	|Conductivity|/mS/cm	Phase(Conductivity)/deg	Tan(Delta)	Loss Angle(Delta)/deg	dq/mA.h
500019	11.6392	-3.20334	12.072	15.3879	201.942	0.44979	0.0218004	-0.0993646	-0.00699645	1	10	0.00423285	0.000350633	0	3.29145e-05	0.0798667	-0.0219808	0.0828363	-15.3879	-6.99645	25.4214	26.3666	-105.388	0.0000000E+000	0.0000000E+000	0.0000000E+000	105.388	0.0000000E+000	0.0000000E+000	0.0000000E+000	-105.388	0.0000000E+000	0.0000000E+000	0.0000000E+000	15.3879	0.0000000E+000	0.0000000E+000	0.0000000E+000	-15.3879	3.63348	74.6121	3.29145e-05
231063	5.79343	-1.04346	5.88665	10.2101	202.65	0.449545	0.0225574	-0.660109	-0.0207409	1	10	0.0101413	0.00172276	0	3.59115e-05	0.167186	-0.0301119	0.169876	-10.2101	-20.7409	115.157	117.01	-100.21	0.0000000E+000	0.0000000E+000	0.0000000E+000	100.21	0.0000000E+000	0.0000000E+000	0.0000000E+000	-100.21	0.0000000E+000	0.0000000E+000	0.0000000E+000	10.2101	0.0000000E+000	0.0000000E+000	0.0000000E+000	-10.2101	5.55215	79.7899	9.81563e-07
106786	5.14843	-0.268361	5.15542	2.98384	203.494	0.449528	0.0220652	-5.55373	-0.0150486	1	10	0.0109752	0.00212886	0	3.70679e-05	0.193708	-0.010097	0.193971	-2.98384	-15.0486	288.703	289.095	-92.9838	0.0000000E+000	0.0000000E+000	0.0000000E+000	92.9838	0.0000000E+000	0.0000000E+000	0.0000000E+000	-92.9838	0.0000000E+000	0.0000000E+000	0.0000000E+000	2.98384	0.0000000E+000	0.0000000E+000	0.0000000E+000	-2.98384	19.1847	87.0162	-2.06417e-07
49352.4	5.09077	-0.0887051	5.09154	0.998261	204.338	0.449546	0.0206891	-36.3549	-0.0110348	1	10	0.010637	0.00208915	0	4.58265e-05	0.196374	-0.00342177	0.196404	-0.998261	-11.0347	633.282	633.378	-90.9983	0.0000000E+000	0.0000000E+000	0.0000000E+000	90.9983	0.0000000E+000	0.0000000E+000	0.0000000E+000	-90.9983	0.0000000E+000	0.0000000E+000	0.0000000E+000	0.998261	0.0000000E+000	0.0000000E+000	0.0000000E+000	-0.998261	57.3898	89.0017	5.61159e-06
22806.6	5.07921	-0.030065	5.0793	0.339143	205.183	0.449555	0.0181012	-232.113	-0.00813231	1	10	0.0105224	0.00207163	0	4.85637e-05	0.196874	-0.00116534	0.196878	-0.339143	-8.13229	1373.88	1373.9	-90.3391	0.0000000E+000	0.0000000E+000	0.0000000E+000	90.3391	0.0000000E+000	0.0000000E+000	0.0000000E+000	-90.3391	0.0000000E+000	0.0000000E+000	0.0000000E+000	0.339143	0.0000000E+000	0.0000000E+000	0.0000000E+000	-0.339143	168.941	89.6609	5.50739e-07
10540.4	5.08218	0.00208531	5.08218	-0.0235095	206.027	0.449551	0.0215207	7240.9	0.00121909	1	10	0.0103452	0.00203558	0	4.77172e-05	0.196766	8.07367e-05	0.196766	0.0235095	1.21891	2971.08	2971.08	-89.9765	0.0000000E+000	0.0000000E+000	0.0000000E+000	89.9765	0.0000000E+000	0.0000000E+000	0.0000000E+000	-89.9765	0.0000000E+000	0.0000000E+000	0.0000000E+000	-0.0235095	0.0000000E+000	0.0000000E+000	0.0000000E+000	0.0235095	2437.13	89.9765	1.38133e-06
4871.56	5.0862	0.0267565	5.08627	-0.301408	207.24	0.44954	0.0183678	1221.02	0.0337895	1	10	0.0101451	0.00199461	0	4.77836e-05	0.196605	0.00103426	0.196608	0.301408	33.7894	6423.13	6423.22	-89.6986	0.0000000E+000	0.0000000E+000	0.0000000E+000	89.6986	0.0000000E+000	0.0000000E+000	0.0000000E+000	-89.6986	0.0000000E+000	0.0000000E+000	0.0000000E+000	-0.301408	0.0000000E+000	0.0000000E+000	0.0000000E+000	0.301408	190.092	89.6986	-2.23267e-07
2250.72	5.09331	0.0536044	5.09359	-0.602986	208.392	0.449546	0.0176145	1319.16	0.1461	1	10	0.0101604	0.00199474	0	5.21343e-05	0.196314	0.00206611	0.196325	0.602986	146.101	13882	13882.7	-89.397	0.0000000E+000	0.0000000E+000	0.0000000E+000	89.397	0.0000000E+000	0.0000000E+000	0.0000000E+000	-89.397	0.0000000E+000	0.0000000E+000	0.0000000E+000	-0.602986	0.0000000E+000	0.0000000E+000	0.0000000E+000	0.602986	95.0165	89.397	8.50129e-07
1040.33	5.10363	0.104305	5.10469	-1.17082	209.322	0.449551	0.0169042	1466.7	0.612371	1	10	0.0104486	0.00204686	0	5.73782e-05	0.195857	0.00400283	0.195898	1.17082	612.369	29963.2	29969.4	-88.8292	0.0000000E+000	0.0000000E+000	0.0000000E+000	88.8292	0.0000000E+000	0.0000000E+000	0.0000000E+000	-88.8292	0.0000000E+000	0.0000000E+000	0.0000000E+000	-1.17082	0.0000000E+000	0.0000000E+000	0.0000000E+000	1.17082	48.9297	88.8292	4.0318e-06
480.769	5.11912	0.206974	5.1233	-2.31529	210.252	0.44954	0.0155151	1599.44	2.61035	1	10	0.010518	0.00205297	0	5.93861e-05	0.195027	0.00788525	0.195187	2.31529	2610.35	64562.3	64615	-87.6847	0.0000000E+000	0.0000000E+000	0.0000000E+000	87.6847	0.0000000E+000	0.0000000E+000	0.0000000E+000	-87.6847	0.0000000E+000	0.0000000E+000	0.0000000E+000	-2.31529	0.0000000E+000	0.0000000E+000	0.0000000E+000	2.31529	24.7332	87.6847	1.03923e-06
222.061	5.14459	0.42063	5.16176	-4.6742	211.177	0.449539	0.0152764	1703.92	11.315	1	10	0.0105331	0.0020406	0	6.34673e-05	0.193088	0.0157872	0.193733	4.6742	11315	138390	138852	-85.3258	0.0000000E+000	0.0000000E+000	0.0000000E+000	85.3258	0.0000000E+000	0.0000000E+000	0.0000000E+000	-85.3258	0.0000000E+000	0.0000000E+000	0.0000000E+000	-4.6742	0.0000000E+000	0.0000000E+000	0.0000000E+000	4.6742	12.2307	85.3258	2.59892e-06
102.667	5.19488	0.841651	5.26262	-9.20284	212.113	0.449548	0.0179707	1841.86	47.1103	1	10	0.0105441	0.00200358	0	6.93904e-05	0.187573	0.0303898	0.190019	9.20284	47110.3	290776	294568	-80.7972	0.0000000E+000	0.0000000E+000	0.0000000E+000	80.7972	0.0000000E+000	0.0000000E+000	0.0000000E+000	-80.7972	0.0000000E+000	0.0000000E+000	0.0000000E+000	-9.20284	0.0000000E+000	0.0000000E+000	0.0000000E+000	9.20284	6.17225	80.7972	3.80554e-06
47.4443	5.27626	1.71538	5.5481	-18.01	213.024	0.449536	0.016921	1955.58	186.942	1	10	0.010556	0.00190264	0	7.63992e-05	0.17141	0.0557277	0.180242	18.01	186942	575007	604632	-71.99	0.0000000E+000	0.0000000E+000	0.0000000E+000	71.99	0.0000000E+000	0.0000000E+000	0.0000000E+000	-71.99	0.0000000E+000	0.0000000E+000	0.0000000E+000	-18.01	0.0000000E+000	0.0000000E+000	0.0000000E+000	18.01	3.07586	71.99	3.45019e-06
21.9144	5.39244	3.54729	6.45459	-33.338	213.892	0.44953	0.0129961	2047.35	618.372	1	10	0.0105662	0.00163701	0	8.20504e-05	0.129434	0.0851451	0.154929	33.338	618372	940022	1.12518e+06	-56.662	0.0000000E+000	0.0000000E+000	0.0000000E+000	56.662	0.0000000E+000	0.0000000E+000	0.0000000E+000	-56.662	0.0000000E+000	0.0000000E+000	0.0000000E+000	-33.338	0.0000000E+000	0.0000000E+000	0.0000000E+000	33.338	1.52016	56.662	5.34725e-06
10.1329	5.61615	7.43463	9.31745	-52.9324	214.819	0.449533	0.0152951	2112.64	1345.08	1	10	0.0105768	0.00113516	0	8.95508e-05	0.0646911	0.0856377	0.107325	52.9324	1.34508e+06	1.01608e+06	1.68573e+06	-37.0676	0.0000000E+000	0.0000000E+000	0.0000000E+000	37.0676	0.0000000E+000	0.0000000E+000	0.0000000E+000	-37.0676	0.0000000E+000	0.0000000E+000	0.0000000E+000	-52.9324	0.0000000E+000	0.0000000E+000	0.0000000E+000	52.9324	0.755404	37.0676	3.61312e-06
4.68375	5.98943	15.7247	16.8267	-69.1484	215.869	0.449554	0.00168737	2160.95	1887.16	1	11	0.0105822	0.000628895	0	9.61352e-05	0.0211538	0.0555371	0.0594293	69.1484	1.88716e+06	718809	2.01942e+06	-20.8516	0.0000000E+000	0.0000000E+000	0.0000000E+000	20.8516	0.0000000E+000	0.0000000E+000	0.0000000E+000	-20.8516	0.0000000E+000	0.0000000E+000	0.0000000E+000	-69.1484	0.0000000E+000	0.0000000E+000	0.0000000E+000	69.1484	0.380894	20.8516	4.6878e-06
2.16533	6.69203	33.3618	34.0263	-78.6576	217.583	0.449562	0.00268468	2203.17	2117.95	1	11	0.0105764	0.00031083	0	8.73297e-05	0.00577999	0.028815	0.029389	78.6576	2.11795e+06	424838	2.16014e+06	-11.3424	0.0000000E+000	0.0000000E+000	0.0000000E+000	11.3424	0.0000000E+000	0.0000000E+000	0.0000000E+000	-11.3424	0.0000000E+000	0.0000000E+000	0.0000000E+000	-78.6576	0.0000000E+000	0.0000000E+000	0.0000000E+000	78.6576	0.20059	11.3424	-1.19548e-06
1.00006	8.25247	70.7972	71.2766	-83.3513	221.923	0.449562	0.000604103	2247.9	2217.76	1	12	0.0105799	0.000148434	0	9.77714e-05	0.00162439	0.0139355	0.0140299	83.3513	2.21776e+06	258513	2.23278e+06	-6.64867	0.0000000E+000	0.0000000E+000	0.0000000E+000	6.64867	0.0000000E+000	0.0000000E+000	0.0000000E+000	-6.64867	0.0000000E+000	0.0000000E+000	0.0000000E+000	-83.3513	0.0000000E+000	0.0000000E+000	0.0000000E+000	83.3513	0.116565	6.64868	3.81121e-06