Folder: SI_for_publications/ACS_Catal_2026/Figures_Na_K/main_figures/data/EC/20251112_2-148_alpha_reproducibility (part 9)

File: 20251112_2-148_002_alpha_reproducibility_2_K2_02_PEIS_C02.mpt
EC-Lab ASCII FILE
Nb header lines : 63

Potentio Electrochemical Impedance Spectroscopy

Run on channel : 2 (SN 69290)
User :
CE vs. WE compliance from -10 V to 10 V
Electrode connection : standard
Potential control : Ewe
Ewe ctrl range : min = -1.00 V, max = 1.00 V
Safety Limits :
	Do not start on E overload
Acquisition started on : 11/12/2025 14:40:45.077
Loaded Setting File :  C:\Users\User\Documents\EC-Lab\Data\Yatsuzuka\20251112_2-148_alpha_reproducibility\20251112_2-148_002_alpha_reproducibility_2_K1.mps
Saved on :
	File : 20251112_2-148_002_alpha_reproducibility_2_K2_02_PEIS_C02.mpr
	Directory : C:\Users\User\Documents\EC-Lab\Data\Yatsuzuka\20251112_2-148_alpha_reproducibility\
	Host : 192.109.209.127
Device : SP-150e (SN .003883)
Address : 192.109.209.128
EC-LAB for windows v11.52 (software)
Internet server v11.52 (firmware)
Command interpretor v11.50 (firmware)
Electrode material :
Initial state :
Electrolyte :
Comments :
Electrode surface area : 0.001 cm2
Characteristic mass : 0.001 g
Equivalent Weight : 0.000 g/eq.
Density : 0.000 g/cm3
Volume (V) : 0.001 cm3
Cycle Definition : Charge/Discharge alternance
Mode                Single sine
E (V)               0.4500
vs.                 Ref
tE (h:m:s)          0:00:0.0000
record              0
dI                  0.000
unit dI             mA
dt (s)              0.000
fi                  500.000
unit fi             kHz
ff                  1.000
unit ff             Hz
Nd                  6
Points              per decade
spacing             Logarithmic
Va (mV)             10.0
pw                  0.10
Na                  2
corr                0
E range min (V)     -1.000
E range max (V)     1.000
I Range             Auto
Bandwidth           5
nc cycles           0
goto Ns'            0
nr cycles           0
inc. cycle          0

freq/Hz	Re(Z)/Ohm	-Im(Z)/Ohm	|Z|/Ohm	Phase(Z)/deg	time/s	<Ewe>/V	<I>/mA	Cs/uF	Cp/uF	cycle number	I Range	|Ewe|/V	|I|/A	Ns	(Q-Qo)/mA.h	Re(Y)/Ohm-1	Im(Y)/Ohm-1	|Y|/Ohm-1	Phase(Y)/deg	Re(C)/nF	Im(C)/nF	|C|/nF	Phase(C)/deg	Re(M)	Im(M)	|M|	Phase(M)/deg	Re(Permittivity)	Im(Permittivity)	|Permittivity|	Phase(Permittivity)/deg	Re(Resistivity)/Ohm.cm	Im(Resistivity)/Ohm.cm	|Resistivity|/Ohm.cm	Phase(Resistivity)/deg	Re(Conductivity)/mS/cm	Im(Conductivity)/mS/cm	|Conductivity|/mS/cm	Phase(Conductivity)/deg	Tan(Delta)	Loss Angle(Delta)/deg	dq/mA.h	Pwe/W	Rwe/Ohm
500019	12.5908	-2.32678	12.804	10.4702	201.82	0.449769	0.0180023	-0.136798	-0.00451753	1	10	0.00435678	0.000340269	0	3.12802e-05	0.0768005	-0.0141928	0.0781009	-10.4702	-4.51753	24.4454	24.8594	-100.47	0.0000000E+000	0.0000000E+000	0.0000000E+000	100.47	0.0000000E+000	0.0000000E+000	0.0000000E+000	-100.47	0.0000000E+000	0.0000000E+000	0.0000000E+000	10.4702	0.0000000E+000	0.0000000E+000	0.0000000E+000	-10.4702	5.41124	79.5298	3.12802e-05	8.09688e-06	24983.9
231063	6.71344	-0.6731	6.74709	5.72544	202.665	0.449545	0.0168277	-1.02332	-0.0101844	1	10	0.00998646	0.00148011	0	3.84267e-05	0.147473	-0.0147858	0.148212	-5.72544	-10.1844	101.579	102.088	-95.7254	0.0000000E+000	0.0000000E+000	0.0000000E+000	95.7254	0.0000000E+000	0.0000000E+000	0.0000000E+000	-95.7254	0.0000000E+000	0.0000000E+000	0.0000000E+000	5.72544	0.0000000E+000	0.0000000E+000	0.0000000E+000	-5.72544	9.9739	84.2746	3.74493e-06	7.56482e-06	26714.6
106786	6.08307	-0.0514082	6.08328	0.484197	203.645	0.449523	0.016962	-28.9916	-0.00207043	1	10	0.0101131	0.00166244	0	4.25977e-05	0.164379	-0.00138917	0.164385	-0.484197	-2.07044	244.991	245	-90.4842	0.0000000E+000	0.0000000E+000	0.0000000E+000	90.4842	0.0000000E+000	0.0000000E+000	0.0000000E+000	-90.4842	0.0000000E+000	0.0000000E+000	0.0000000E+000	0.484197	0.0000000E+000	0.0000000E+000	0.0000000E+000	-0.484197	118.329	89.5158	5.43371e-06	7.62479e-06	26501.8
49352.4	6.06876	0.0436248	6.06892	-0.411858	204.49	0.449539	0.0187146	73.9229	0.00381964	1	10	0.0106286	0.00175131	0	4.11957e-05	0.16477	0.00118443	0.164774	0.411858	3.81963	531.361	531.375	-89.5881	0.0000000E+000	0.0000000E+000	0.0000000E+000	89.5881	0.0000000E+000	0.0000000E+000	0.0000000E+000	-89.5881	0.0000000E+000	0.0000000E+000	0.0000000E+000	-0.411858	0.0000000E+000	0.0000000E+000	0.0000000E+000	0.411858	139.113	89.5881	1.69997e-07	8.41296e-06	24020.8
22806.6	6.0876	0.0531151	6.08783	-0.499901	205.335	0.449535	0.0162497	131.384	0.0100012	1	10	0.0104744	0.00172056	0	4.3605e-05	0.164256	0.00143316	0.164262	0.499901	10.0012	1146.26	1146.3	-89.5001	0.0000000E+000	0.0000000E+000	0.0000000E+000	89.5001	0.0000000E+000	0.0000000E+000	0.0000000E+000	-89.5001	0.0000000E+000	0.0000000E+000	0.0000000E+000	-0.499901	0.0000000E+000	0.0000000E+000	0.0000000E+000	0.499901	114.611	89.5001	3.4311e-06	7.30482e-06	27664.2
10540.4	6.10443	0.0524375	6.10465	-0.492163	206.179	0.449538	0.016177	287.953	0.0212463	1	10	0.0103263	0.00169155	0	4.86506e-05	0.163803	0.00140708	0.163809	0.492163	21.2464	2473.36	2473.45	-89.5078	0.0000000E+000	0.0000000E+000	0.0000000E+000	89.5078	0.0000000E+000	0.0000000E+000	0.0000000E+000	-89.5078	0.0000000E+000	0.0000000E+000	0.0000000E+000	-0.492163	0.0000000E+000	0.0000000E+000	0.0000000E+000	0.492163	116.413	89.5078	1.33977e-06	7.27217e-06	27788.7
4871.56	6.1267	0.0535959	6.12694	-0.501206	207.392	0.44953	0.0163709	609.566	0.0466441	1	10	0.0101147	0.00165086	0	5.00884e-05	0.163207	0.00142773	0.163214	0.501206	46.6441	5332.03	5332.23	-89.4988	0.0000000E+000	0.0000000E+000	0.0000000E+000	89.4988	0.0000000E+000	0.0000000E+000	0.0000000E+000	-89.4988	0.0000000E+000	0.0000000E+000	0.0000000E+000	-0.501206	0.0000000E+000	0.0000000E+000	0.0000000E+000	0.501206	114.313	89.4988	3.88913e-07	7.35921e-06	27459.1
2250.72	6.14204	0.0692361	6.14243	-0.645839	208.322	0.449536	0.0166748	1021.33	0.129763	1	10	0.010986	0.00178854	0	5.45118e-05	0.162792	0.00183507	0.162802	0.645839	129.762	11511.5	11512.2	-89.3542	0.0000000E+000	0.0000000E+000	0.0000000E+000	89.3542	0.0000000E+000	0.0000000E+000	0.0000000E+000	-89.3542	0.0000000E+000	0.0000000E+000	0.0000000E+000	-0.645839	0.0000000E+000	0.0000000E+000	0.0000000E+000	0.645839	88.7115	89.3542	3.65015e-06	7.49594e-06	26959
1040.33	6.14687	0.114137	6.14793	-1.06377	209.474	0.449539	0.0169657	1340.36	0.461975	1	10	0.0102268	0.00166346	0	6.23016e-05	0.162628	0.00301975	0.162656	1.06377	461.974	24879.7	24883.9	-88.9362	0.0000000E+000	0.0000000E+000	0.0000000E+000	88.9362	0.0000000E+000	0.0000000E+000	0.0000000E+000	-88.9362	0.0000000E+000	0.0000000E+000	0.0000000E+000	-1.06377	0.0000000E+000	0.0000000E+000	0.0000000E+000	1.06377	53.855	88.9362	1.0652e-06	7.62674e-06	26497
480.769	6.16877	0.213707	6.17247	-1.98413	210.404	0.449534	0.016108	1549.05	1.85688	1	10	0.0102834	0.00166602	0	6.68598e-05	0.161913	0.0056092	0.16201	1.98413	1856.88	53599.9	53632.1	-88.0159	0.0000000E+000	0.0000000E+000	0.0000000E+000	88.0159	0.0000000E+000	0.0000000E+000	0.0000000E+000	-88.0159	0.0000000E+000	0.0000000E+000	0.0000000E+000	-1.98413	0.0000000E+000	0.0000000E+000	0.0000000E+000	1.98413	28.8655	88.0159	2.38625e-06	7.24111e-06	27907.5
222.061	6.19472	0.432387	6.20979	-3.99272	211.328	0.449522	0.0158544	1657.59	8.03649	1	10	0.0102882	0.00165677	0	7.16448e-05	0.160645	0.0112129	0.161036	3.99272	8036.48	115137	115417	-86.0073	0.0000000E+000	0.0000000E+000	0.0000000E+000	86.0073	0.0000000E+000	0.0000000E+000	0.0000000E+000	-86.0073	0.0000000E+000	0.0000000E+000	0.0000000E+000	-3.99272	0.0000000E+000	0.0000000E+000	0.0000000E+000	3.99272	14.3268	86.0073	2.97199e-06	7.12692e-06	28353
102.667	6.25059	0.866068	6.31031	-7.88855	212.265	0.449534	0.0162218	1789.93	33.7162	1	10	0.0102962	0.00163165	0	7.37816e-05	0.156971	0.0217496	0.158471	7.88855	33716.2	243337	245662	-82.1115	0.0000000E+000	0.0000000E+000	0.0000000E+000	82.1115	0.0000000E+000	0.0000000E+000	0.0000000E+000	-82.1115	0.0000000E+000	0.0000000E+000	0.0000000E+000	-7.88855	0.0000000E+000	0.0000000E+000	0.0000000E+000	7.88855	7.21721	82.1115	7.16062e-07	7.29222e-06	27711.8
47.4443	6.34865	1.75747	6.58742	-15.4734	213.176	0.449521	0.0148737	1908.75	135.86	1	10	0.0103106	0.00156519	0	7.56345e-05	0.146302	0.0405001	0.151805	15.4734	135860	490780	509238	-74.5266	0.0000000E+000	0.0000000E+000	0.0000000E+000	74.5266	0.0000000E+000	0.0000000E+000	0.0000000E+000	-74.5266	0.0000000E+000	0.0000000E+000	0.0000000E+000	-15.4734	0.0000000E+000	0.0000000E+000	0.0000000E+000	15.4734	3.61239	74.5266	4.0326e-07	6.68605e-06	30222.6
21.9144	6.47748	3.60806	7.41457	-29.1185	214.044	0.449522	0.0139862	2012.87	476.641	1	10	0.0103161	0.00139133	0	7.56987e-05	0.117824	0.0656299	0.13487	29.1185	476641	855704	979498	-60.8815	0.0000000E+000	0.0000000E+000	0.0000000E+000	60.8815	0.0000000E+000	0.0000000E+000	0.0000000E+000	-60.8815	0.0000000E+000	0.0000000E+000	0.0000000E+000	-29.1185	0.0000000E+000	0.0000000E+000	0.0000000E+000	29.1185	1.79528	60.8815	-2.08454e-06	6.2871e-06	32140.5
10.1329	6.62264	7.4911	9.99879	-48.5211	214.974	0.449534	0.0164995	2096.71	1176.89	1	10	0.0103316	0.00103328	0	8.36248e-05	0.0662424	0.0749291	0.100012	48.5211	1.17689e+06	1.04045e+06	1.57086e+06	-41.4789	0.0000000E+000	0.0000000E+000	0.0000000E+000	41.4789	0.0000000E+000	0.0000000E+000	0.0000000E+000	-41.4789	0.0000000E+000	0.0000000E+000	0.0000000E+000	-48.5211	0.0000000E+000	0.0000000E+000	0.0000000E+000	48.5211	0.884068	41.4789	6.50288e-06	7.41711e-06	27245.2
4.68375	7.0797	15.8576	17.3662	-65.9414	216.024	0.449548	0.00198705	2142.84	1786.71	1	11	0.0103276	0.000594693	0	7.56791e-05	0.023475	0.0525808	0.0575832	65.9414	1.78671e+06	797686	1.95669e+06	-24.0586	0.0000000E+000	0.0000000E+000	0.0000000E+000	24.0586	0.0000000E+000	0.0000000E+000	0.0000000E+000	-24.0586	0.0000000E+000	0.0000000E+000	0.0000000E+000	-65.9414	0.0000000E+000	0.0000000E+000	0.0000000E+000	65.9414	0.446455	24.0586	-8.33047e-06	8.93276e-07	226238
2.16533	7.93378	33.5627	34.4877	-76.7002	217.737	0.449555	0.00199459	2189.98	2074.08	1	11	0.0103326	0.000299604	0	8.64023e-05	0.00667041	0.0282182	0.0289959	76.7002	2.07408e+06	490286	2.13124e+06	-13.2998	0.0000000E+000	0.0000000E+000	0.0000000E+000	13.2998	0.0000000E+000	0.0000000E+000	0.0000000E+000	-13.2998	0.0000000E+000	0.0000000E+000	0.0000000E+000	-76.7002	0.0000000E+000	0.0000000E+000	0.0000000E+000	76.7002	0.236387	13.2998	6.24642e-06	8.96678e-07	225387
1.00006	9.72625	70.9572	71.6207	-82.195	222.077	0.449557	0.000569306	2242.83	2201.47	1	12	0.0103325	0.000144266	0	8.01143e-05	0.00189613	0.0138331	0.0139624	82.195	2.20147e+06	301760	2.22205e+06	-7.80502	0.0000000E+000	0.0000000E+000	0.0000000E+000	7.80502	0.0000000E+000	0.0000000E+000	0.0000000E+000	-7.80502	0.0000000E+000	0.0000000E+000	0.0000000E+000	-82.195	0.0000000E+000	0.0000000E+000	0.0000000E+000	82.195	0.137072	7.80502	-5.06676e-06	2.55935e-07	789658

File: 20251112_2-148_002_alpha_reproducibility_2_K2_03_CVA_C02.mpt
EC-Lab ASCII FILE
Nb header lines : 66

Cyclic Voltammetry Advanced

Run on channel : 2 (SN 69290)
User :
CE vs. WE compliance from -10 V to 10 V
Electrode connection : standard
Potential control : Ewe
Ewe ctrl range : min = -1.00 V, max = 1.00 V
Safety Limits :
	Do not start on E overload
Acquisition started on : 11/12/2025 14:40:45.077
Loaded Setting File :  C:\Users\User\Documents\EC-Lab\Data\Yatsuzuka\20251112_2-148_alpha_reproducibility\20251112_2-148_002_alpha_reproducibility_2_K1.mps
Saved on :
	File : 20251112_2-148_002_alpha_reproducibility_2_K2_03_CVA_C02.mpr
	Directory : C:\Users\User\Documents\EC-Lab\Data\Yatsuzuka\20251112_2-148_alpha_reproducibility\
	Host : 192.109.209.127
Device : SP-150e (SN .003883)
Address : 192.109.209.128
EC-LAB for windows v11.52 (software)
Internet server v11.52 (firmware)
Command interpretor v11.50 (firmware)
Electrode material :
Initial state :
Electrolyte :
Comments :
Electrode surface area : 0.001 cm2
Characteristic mass : 0.001 g
Equivalent Weight : 0.000 g/eq.
Density : 0.000 g/cm3
Volume (V) : 0.001 cm3
Cycle Definition : Charge/Discharge alternance
Ei (V)              0.450
vs.                 Ref
ti (h:m:s)          0:00:10.0000
dti (s)             0.0000
dE/dt               5.000
dE/dt unit          mV/s
E1 (V)              0.700
vs.                 Ref
t1 (h:m:s)          0:00:0.0000
dt1 (s)             0.1000
Step percent        50
N                   10
E range min (V)     -1.000
E range max (V)     1.000
I Range             10 mA
I Range min         Unset
I Range max         Unset
I Range init        Unset
Bandwidth           5
E2 (V)              0.450
vs.                 Ref
t2 (h:m:s)          0:00:0.0000
dt2 (s)             0.1000
nc cycles           14
nr                  1
Reverse Scan        0
Ef (V)              0.000
vs.                 Eoc
tf (h:m:s)          0:00:0.0000
dtf (s)             0.1000

mode	ox/red	error	control changes	Ns changes	counter inc.	time/s	control/V	Ewe/V	<I>/mA	cycle number	(Q-Qo)/C	I Range	Ns	step time/s	Pwe/W	Rwe/Ohm
2	1	0	0	0	0	232.206	0.450021	0.449496	0.0105261	1	0.0000000E+000	11	0	0.000000000000000E+000	4.73144e-06	42703.1
2	1	0	1	0	0	246.045	0.519213	0.518729	0.0140648	1	0.000189975	11	0	13.7837	7.29583e-06	36881.4
2	1	0	0	0	0	259.929	0.588631	0.58815	0.0261232	1	0.000427429	11	0	27.6672	1.53644e-05	22514.5
2	1	0	0	0	0	273.812	0.658049	0.657587	0.410891	1	0.0022645	11	0	41.5508	0.000270196	1600.39
2	1	0	1	0	0	287.446	0.673781	0.67332	0.658834	1	0.0157258	11	0	55.1849	0.000443606	1021.99
2	1	0	1	0	0	301.33	0.604362	0.603909	0.0203403	1	0.0186578	11	0	69.0685	1.22837e-05	29690.3
2	0	0	0	0	0	315.213	0.534945	0.534492	-0.00798289	1	0.0186473	11	0	8.7895	-4.26679e-06	66954.7
2	1	0	0	0	0	329.097	0.465527	0.465061	-0.0117638	1	0.0185079	11	0	22.6731	-5.47086e-06	39533.4
2	1	0	0	0	1	342.75	0.502783	0.502326	0.0124449	2	0.0186054	11	0	10.4876	6.25141e-06	40364
2	1	0	1	0	1	356.633	0.5722	0.571695	0.0176943	2	0.0187992	11	0	24.3711	1.01157e-05	32309.6
2	1	0	1	0	1	370.517	0.641619	0.641156	0.199796	2	0.0197013	11	0	38.2547	0.0001281	3209.06
2	1	0	1	0	1	384.141	0.69026	0.689823	1.15286	2	0.031092	11	0	51.8789	0.000795269	598.358
2	1	0	0	0	1	398.025	0.620843	0.620433	0.0561047	2	0.0367313	11	0	65.7624	3.48092e-05	11058.5
2	0	0	1	0	1	411.908	0.551426	0.550935	-0.00688214	2	0.0368601	11	0	5.7931	-3.79161e-06	80052.8
2	0	0	1	0	1	425.792	0.482007	0.481528	-0.0103362	2	0.0367307	11	0	19.6767	-4.97716e-06	46586.7
2	1	0	1	0	0	439.445	0.486303	0.485862	0.0125967	3	0.0367489	11	0	7.2465	6.12028e-06	38570.5
2	1	0	1	0	0	453.328	0.55572	0.555299	0.0144528	3	0.0369304	11	0	21.13	8.02561e-06	38421.5
2	1	0	1	0	0	467.212	0.625138	0.624683	0.0951374	3	0.0374132	11	0	35.0136	5.94307e-05	6566.12
2	1	0	1	0	0	481.095	0.694555	0.694137	1.38571	3	0.0448901	11	0	48.8971	0.000961874	500.924
2	1	0	1	0	0	494.72	0.637323	0.636931	0.132649	3	0.0544219	11	0	62.5213	8.44881e-05	4801.63
2	1	0	1	0	0	508.603	0.567906	0.56743	-0.00430861	3	0.0548572	11	0	2.3971	-2.44483e-06	131697
2	0	0	1	0	0	522.487	0.498488	0.498027	-0.0104934	3	0.0547438	11	0	16.2807	-5.226e-06	47460.9
2	1	0	1	0	1	536.14	0.469822	0.469365	0.0120774	4	0.0546854	11	0	3.9504	5.66873e-06	38862.9
2	1	0	1	0	1	550.023	0.539239	0.538772	0.0125679	4	0.0548629	11	0	17.8339	6.77123e-06	42868.8
2	1	0	1	0	1	563.907	0.608658	0.608158	0.0474638	4	0.055165	11	0	31.7175	2.88655e-05	12813.1
2	1	0	0	0	1	577.79	0.678075	0.677639	0.836267	4	0.0591671	11	0	45.601	0.000566687	810.313
2	1	0	1	0	1	591.415	0.653804	0.653332	0.280721	4	0.0714688	11	0	59.2252	0.000183404	2327.34
2	1	0	1	0	1	605.298	0.584386	0.583949	0.00143506	4	0.07255	11	0	73.1088	8.38004e-07	406915
2	0	0	1	0	1	619.182	0.514968	0.514514	-0.00927913	4	0.0724643	11	0	12.9846	-4.77425e-06	55448.6
2	1	0	1	0	0	632.835	0.453341	0.452894	0.01241	5	0.072333	11	0	0.5993	5.62043e-06	36494.2
2	1	0	0	0	0	646.718	0.522759	0.522297	0.0134051	5	0.0725087	11	0	14.4828	7.00146e-06	38962.4
2	1	0	0	0	0	660.602	0.592177	0.59175	0.0269229	5	0.0727353	11	0	28.3664	1.59316e-05	21979.4
2	1	0	1	0	0	674.485	0.661594	0.661167	0.452515	5	0.0747463	11	0	42.2499	0.000299188	1461.1
2	1	0	1	0	0	688.109	0.670284	0.669815	0.544071	5	0.0876132	11	0	55.8741	0.000364427	1231.12
2	1	0	1	0	0	701.993	0.600866	0.600406	0.0135817	5	0.0899826	11	0	69.7577	8.15456e-06	44206.8
2	0	0	0	0	0	715.877	0.531449	0.531057	-0.00918075	5	0.0899493	11	0	9.7884	-4.87551e-06	57844.6
2	1	0	1	0	0	729.76	0.462032	0.461576	-0.0113279	5	0.0898089	11	0	23.6719	-5.22866e-06	40746.9
2	1	0	0	0	1	743.413	0.506279	0.505828	0.0121141	6	0.089922	11	0	11.2418	6.12765e-06	41755.4
2	1	0	1	0	1	757.297	0.575696	0.575231	0.0185386	6	0.0901158	11	0	25.1253	1.0664e-05	31028.9
2	1	0	1	0	1	771.18	0.645114	0.644673	0.222544	6	0.0911105	11	0	39.0088	0.000143468	2896.83
2	1	0	0	0	1	784.804	0.686765	0.686312	0.955492	6	0.102493	11	0	52.633	0.000655766	718.281
2	1	0	0	0	1	798.688	0.617347	0.616889	0.0419117	6	0.107089	11	0	66.5166	2.58549e-05	14718.8
2	0	0	1	0	1	812.571	0.547929	0.547449	-0.00788914	6	0.107166	11	0	6.6921	-4.3189e-06	69392.7
2	0	0	1	0	1	826.455	0.478511	0.478055	-0.0108549	6	0.107035	11	0	20.5757	-5.18923e-06	44040.5
2	1	0	1	0	0	840.108	0.489799	0.48937	0.0119531	7	0.107069	11	0	7.8907	5.84949e-06	40940.9
2	1	0	1	0	0	853.992	0.559216	0.558801	0.0144601	7	0.10725	11	0	21.7742	8.08031e-06	38644.4
2	1	0	1	0	0	867.875	0.628633	0.628135	0.104156	7	0.107773	11	0	35.6577	6.5424e-05	6030.71
2	1	0	1	0	0	881.759	0.698051	0.69757	1.41477	7	0.115747	11	0	49.5413	0.000986901	493.062
2	1	0	1	0	0	895.383	0.633827	0.633384	0.101305	7	0.123735	11	0	63.1655	6.41651e-05	6252.24
2	1	0	1	0	0	909.266	0.56441	0.563941	-0.00510379	7	0.124051	11	0	3.2961	-2.87824e-06	110495
2	0	0	1	0	0	923.15	0.494992	0.494525	-0.00947663	7	0.123934	11	0	17.1797	-4.68643e-06	52183.6
2	1	0	1	0	1	936.803	0.473318	0.472857	0.0123872	8	0.123892	11	0	4.6496	5.85735e-06	38173.2
2	1	0	1	0	1	950.686	0.542735	0.542254	0.0127471	8	0.124067	11	0	18.5331	6.91218e-06	42539.4
2	1	0	1	0	1	964.57	0.612154	0.611706	0.0518553	8	0.124386	11	0	32.4167	3.17202e-05	11796.4
2	1	0	0	0	1	978.454	0.681571	0.681116	0.891118	8	0.128769	11	0	46.3002	0.000606954	764.339
2	1	0	1	0	1	992.078	0.650308	0.649829	0.224068	8	0.139965	11	0	59.9244	0.000145606	2900.14
2	1	0	1	0	1	1005.96	0.58089	0.580415	-0.000846319	8	0.140799	11	0	0.000000000000000E+000	-4.91216e-07	685811
[...]
2	0	0	1	0	1	1213.23	0.544433	0.543969	-0.00714679	10	0.173469	11	0	7.4911	-3.88763e-06	76113.7
2	0	0	1	0	1	1227.12	0.475016	0.474506	-0.0109448	10	0.173338	11	0	21.3746	-5.19339e-06	43354.3
2	1	0	1	0	0	1240.77	0.493294	0.492811	0.0121822	11	0.173388	11	0	8.5898	6.00354e-06	40453.3
2	1	0	1	0	0	1254.65	0.562712	0.562229	0.0156178	11	0.173569	11	0	22.4734	8.78076e-06	35999.3
2	1	0	1	0	0	1268.54	0.632129	0.631712	0.117766	11	0.174141	11	0	36.3569	7.43941e-05	5364.13
2	1	0	1	0	0	1282.16	0.699749	0.699342	1.37899	11	0.182222	11	0	49.9811	0.000964387	507.141
2	1	0	1	0	0	1296.05	0.630332	0.629837	0.0795849	11	0.189138	11	0	63.8646	5.01256e-05	7914.02
2	0	0	1	0	0	1309.93	0.560914	0.560462	-0.00518959	11	0.189368	11	0	4.195	-2.90857e-06	107997
2	0	0	1	0	0	1323.81	0.491497	0.491032	-0.0103304	11	0.189249	11	0	18.0785	-5.07254e-06	47533
2	1	0	1	0	1	1337.47	0.476813	0.476371	0.0122581	12	0.189222	11	0	5.2937	5.83939e-06	38861.8
2	1	0	1	0	1	1351.35	0.546232	0.545769	0.0138264	12	0.189397	11	0	19.1773	7.54602e-06	39472.9
2	1	0	0	0	1	1365.23	0.615649	0.615192	0.0567229	12	0.189737	11	0	33.0608	3.48954e-05	10845.6
2	1	0	0	0	1	1379.12	0.685067	0.684605	0.929816	12	0.194473	11	0	46.9444	0.000636557	736.279
2	1	0	1	0	1	1392.74	0.646813	0.646312	0.183576	12	0.20447	11	0	60.5685	0.000118647	3520.69
2	1	0	1	0	1	1406.62	0.577394	0.576959	-0.0024533	12	0.205129	11	0	0.8989	-1.41546e-06	235176
2	0	0	0	0	1	1420.51	0.507977	0.507505	-0.00986337	12	0.205028	11	0	14.7824	-5.00571e-06	51453.5
2	1	0	1	0	0	1434.16	0.460334	0.459911	0.0117686	13	0.204928	11	0	1.9977	5.41252e-06	39079.3
2	1	0	0	0	0	1448.04	0.529751	0.529293	0.0121623	13	0.205102	11	0	15.8812	6.43741e-06	43519.2
2	1	0	1	0	0	1461.93	0.599168	0.598699	0.0308709	13	0.205343	11	0	29.7647	1.84824e-05	19393.6
2	1	0	1	0	0	1475.81	0.668587	0.668152	0.551199	13	0.20785	11	0	43.6483	0.000368285	1212.18
2	1	0	1	0	0	1489.44	0.663292	0.662826	0.370956	13	0.219626	11	0	57.2725	0.000245879	1786.81
2	0	0	0	0	0	1503.32	0.593875	0.593406	0.00683984	13	0.221146	11	0	71.156	4.0588e-06	86757.2
2	0	0	1	0	0	1517.2	0.524458	0.524003	-0.00837952	13	0.221082	11	0	11.4863	-4.3909e-06	62533.8
2	0	0	1	0	0	1531.09	0.455039	0.454522	-0.0122588	13	0.220939	11	0	25.3699	-5.57188e-06	37077.3
2	1	0	1	0	1	1544.74	0.51327	0.512778	0.0123576	14	0.221084	11	0	12.5851	6.33669e-06	41495.1
2	1	0	1	0	1	1558.62	0.582688	0.582257	0.0200765	14	0.221283	11	0	26.4686	1.16897e-05	29001.9
2	1	0	1	0	1	1572.51	0.652106	0.651666	0.279767	14	0.222522	11	0	40.3522	0.000182315	2329.32
2	1	0	0	0	1	1586.13	0.679773	0.679344	0.688197	14	0.233789	11	0	53.9764	0.000467523	987.135
2	1	0	1	0	1	1600.01	0.610355	0.609876	0.0230634	14	0.236925	11	0	67.8599	1.40658e-05	26443.5
2	0	0	1	0	1	1613.9	0.540937	0.540461	-0.00784061	14	0.236933	11	0	8.2902	-4.23754e-06	68931
2	0	0	1	0	1	1627.78	0.47152	0.471041	-0.0115312	14	0.236799	11	0	22.1737	-5.43169e-06	40849.2
2	1	0	1	0	0	1641.43	0.49679	0.496328	0.0117835	15	0.236865	11	0	9.289	5.8485e-06	42120.4
2	1	0	1	0	0	1655.32	0.566207	0.565716	0.0159094	15	0.237046	11	0	23.1725	9.00019e-06	35558.7
2	1	0	1	0	0	1669.2	0.635626	0.635185	0.133703	15	0.23768	11	0	37.0561	8.4926e-05	4750.73
2	1	0	1	0	0	1682.83	0.696253	0.695818	1.21734	15	0.246477	11	0	50.6803	0.00084705	571.588
2	1	0	1	0	0	1696.71	0.626836	0.62633	0.0634308	15	0.252497	11	0	64.5638	3.97287e-05	9874.22
2	0	0	1	0	0	1710.59	0.557418	0.556939	-0.00619761	15	0.252665	11	0	4.9941	-3.45169e-06	89863.6
2	0	0	1	0	0	1724.48	0.488	0.487535	-0.0107649	15	0.252543	11	0	18.8776	-5.24825e-06	45289.5
2	1	0	1	0	0	1732.07	0.450021	0.449573	-0.00242571	15	0.25246	11	0	26.4727	-1.09053e-06	185337