Folder: SI_for_publications/ACS_Catal_2026/Figures_Na_K/main_figures/data/EC/20251112_2-148_alpha_reproducibility (part 14)

File: 20251112_2-148_003_alpha_Na_first_1_K1_03_CVA_C01.mpt
EC-Lab ASCII FILE
Nb header lines : 66

Cyclic Voltammetry Advanced

Run on channel : 1 (SN 69187)
User :
CE vs. WE compliance from -10 V to 10 V
Electrode connection : standard
Potential control : Ewe
Ewe ctrl range : min = -1.00 V, max = 1.00 V
Safety Limits :
	Do not start on E overload
Acquisition started on : 11/12/2025 16:18:27.289
Loaded Setting File :  C:\Users\User\Documents\EC-Lab\Data\Yatsuzuka\20251030_2-147_gamma_reproducibility\20251030_2-147_001_gamma1_K_1.mps
Saved on :
	File : 20251112_2-148_003_alpha_Na_first_1_K1_03_CVA_C01.mpr
	Directory : C:\Users\User\Documents\EC-Lab\Data\Yatsuzuka\20251112_2-148_alpha_reproducibility\
	Host : 192.109.209.127
Device : SP-150e (SN .003883)
Address : 192.109.209.128
EC-Lab for windows v11.52 (software)
Internet server v11.52 (firmware)
Command interpretor v11.50 (firmware)
Electrode material :
Initial state :
Electrolyte :
Comments :
Electrode surface area : 0.001 cm2
Characteristic mass : 0.001 g
Equivalent Weight : 0.000 g/eq.
Density : 0.000 g/cm3
Volume (V) : 0.001 cm3
Cycle Definition : Charge/Discharge alternance
Ei (V)              0.450
vs.                 Ref
ti (h:m:s)          0:00:10.0000
dti (s)             0.0000
dE/dt               5.000
dE/dt unit          mV/s
E1 (V)              0.700
vs.                 Ref
t1 (h:m:s)          0:00:0.0000
dt1 (s)             0.1000
Step percent        50
N                   10
E range min (V)     -1.000
E range max (V)     1.000
I Range             10 mA
I Range min         Unset
I Range max         Unset
I Range init        Unset
Bandwidth           5
E2 (V)              0.450
vs.                 Ref
t2 (h:m:s)          0:00:0.0000
dt2 (s)             0.1000
nc cycles           14
nr                  1
Reverse Scan        0
Ef (V)              0.000
vs.                 Eoc
tf (h:m:s)          0:00:0.0000
dtf (s)             0.1000

mode	ox/red	error	control changes	Ns changes	counter inc.	time/s	control/V	Ewe/V	<I>/mA	cycle number	(Q-Qo)/C	I Range	Ns	step time/s	P/W
2	0	0	1	0	0	231.837	0.449961	0.449831	-0.00915854	1	0.0000000E+000	11	0	0.000000000000000E+000	-4.11979e-06
2	0	0	1	0	0	238.882	0.485187	0.484969	0.0125688	1	9.36458e-05	11	0	6.9902	6.09547e-06
2	1	0	1	0	0	245.973	0.520638	0.520453	0.0132842	1	0.000188964	11	0	14.0804	6.91383e-06
2	1	0	1	0	0	253.063	0.556089	0.555904	0.0170835	1	0.000296238	11	0	21.1706	9.49676e-06
2	1	0	1	0	0	260.153	0.59154	0.591343	0.0364967	1	0.00046801	11	0	28.2608	2.15821e-05
2	1	0	1	0	0	267.243	0.62699	0.62677	0.131172	1	0.000972283	11	0	35.3509	8.22148e-05
2	1	0	0	0	0	274.333	0.662441	0.662247	0.533382	1	0.00303234	11	0	42.4411	0.00035323
2	1	0	1	0	0	281.423	0.697891	0.69771	1.53013	1	0.0100097	11	0	49.5312	0.00106759
2	1	0	1	0	0	288.296	0.667733	0.667494	0.508272	1	0.0168386	11	0	56.404	0.000339268
2	1	0	1	0	0	295.386	0.632283	0.632071	0.111839	1	0.0187365	11	0	63.4941	7.06903e-05
2	1	0	0	0	0	302.477	0.596832	0.596632	0.0159436	1	0.0191129	11	0	70.5843	9.51247e-06
2	1	0	1	0	0	309.567	0.561381	0.561124	-0.00356858	1	0.0191376	11	0	1.6977	-2.00242e-06
2	1	0	1	0	0	316.657	0.525931	0.52571	-0.00803956	1	0.0190873	11	0	8.7878	-4.22648e-06
2	0	0	1	0	0	323.747	0.49048	0.490261	-0.010577	1	0.0190171	11	0	15.878	-5.18548e-06
2	0	0	1	0	0	330.837	0.455029	0.454834	-0.0119933	1	0.0189363	11	0	22.9682	-5.45494e-06
2	1	0	1	0	1	337.785	0.479745	0.479537	0.0126987	2	0.0189954	11	0	5.8919	6.08948e-06
2	1	0	1	0	1	344.875	0.515195	0.514973	0.0124312	2	0.0190832	11	0	12.982	6.40174e-06
2	1	0	0	0	1	351.965	0.550646	0.550427	0.0149038	2	0.0191771	11	0	20.0722	8.20345e-06
2	1	0	1	0	1	359.055	0.586097	0.58593	0.0271497	2	0.0193146	11	0	27.1623	1.59078e-05
2	1	0	1	0	1	366.145	0.621548	0.62134	0.0949573	2	0.0196891	11	0	34.2525	5.90007e-05
2	1	0	1	0	1	373.236	0.656999	0.656747	0.412161	2	0.0212433	11	0	41.3427	0.000270686
2	1	0	1	0	1	380.326	0.69245	0.692194	1.2841	2	0.0269017	11	0	48.4329	0.000888845
2	1	0	1	0	1	387.189	0.673226	0.673005	0.592607	2	0.0343397	11	0	55.2956	0.000398828
2	1	0	1	0	1	394.279	0.637776	0.637574	0.141516	2	0.036644	11	0	62.3857	9.0227e-05
2	1	0	1	0	1	401.369	0.602325	0.602085	0.0228329	2	0.0371206	11	0	69.4759	1.37473e-05
2	0	0	1	0	1	408.459	0.566874	0.566709	-0.00367331	2	0.0371637	11	0	0.9986	-2.0817e-06
2	1	0	1	0	1	415.549	0.531423	0.531226	-0.00769772	2	0.0371177	11	0	8.0888	-4.08923e-06
2	0	0	1	0	1	422.639	0.495972	0.495705	-0.0107678	2	0.0370491	11	0	15.1789	-5.33764e-06
2	0	0	0	0	1	429.73	0.460521	0.460288	-0.0126381	2	0.0369699	11	0	22.2691	-5.81715e-06
2	0	0	1	0	0	436.677	0.474252	0.474021	0.0111487	3	0.0370015	11	0	4.7934	5.28474e-06
2	1	0	1	0	0	443.767	0.509702	0.509491	0.0118559	3	0.0370884	11	0	11.8835	6.04046e-06
2	1	0	1	0	0	450.857	0.545154	0.544974	0.0135836	3	0.0371785	11	0	18.9737	7.40273e-06
2	1	0	1	0	0	457.948	0.580605	0.580414	0.0219831	3	0.0372997	11	0	26.0639	1.27593e-05
2	1	0	1	0	0	465.038	0.616056	0.615858	0.0740914	3	0.0375958	11	0	33.1541	4.56298e-05
2	1	0	1	0	0	472.128	0.651506	0.651295	0.318881	3	0.0387844	11	0	40.2442	0.000207685
2	1	0	0	0	0	479.218	0.686957	0.686751	1.06866	3	0.0433532	11	0	47.3344	0.000733903
2	1	0	1	0	0	486.081	0.678719	0.678492	0.686405	3	0.0509909	11	0	54.1971	0.000465721
2	1	0	1	0	0	493.171	0.643268	0.643056	0.171034	3	0.053667	11	0	61.2873	0.000109984
2	1	0	1	0	0	500.261	0.607816	0.607595	0.0297082	3	0.0542562	11	0	68.3775	1.80505e-05
2	1	0	0	0	0	507.351	0.572366	0.572178	-0.000319506	3	0.0543294	11	0	0.000000000000000E+000	-1.82814e-07
2	0	0	1	0	0	514.442	0.536915	0.536702	-0.00915435	3	0.0542896	11	0	6.9903	-4.91316e-06
2	1	0	1	0	0	521.532	0.501465	0.501235	-0.00910528	3	0.054223	11	0	14.0804	-4.56388e-06
2	0	0	1	0	0	528.622	0.466014	0.465765	-0.01271	3	0.0541448	11	0	21.1706	-5.91987e-06
2	1	0	1	0	1	535.569	0.46876	0.468528	0.0126952	4	0.0541493	11	0	3.6949	5.94803e-06
2	0	0	1	0	1	542.66	0.504211	0.50396	0.0112049	4	0.0542343	11	0	10.7851	5.64681e-06
2	1	0	1	0	1	549.75	0.539662	0.539482	0.0134888	4	0.0543221	11	0	17.8753	7.27699e-06
2	1	0	0	0	1	556.84	0.575112	0.574896	0.0190199	4	0.0544321	11	0	24.9654	1.09345e-05
2	1	0	1	0	1	563.93	0.610563	0.610324	0.0591835	4	0.0546733	11	0	32.0556	3.61211e-05
2	1	0	1	0	1	571.02	0.646014	0.645803	0.249422	4	0.0555969	11	0	39.1457	0.000161078
2	1	0	1	0	1	578.11	0.681465	0.68123	0.895514	4	0.0593038	11	0	46.2359	0.000610051
2	1	0	0	0	1	584.973	0.684211	0.684041	0.816747	4	0.0670535	11	0	53.0986	0.000558689
2	1	0	1	0	1	592.063	0.64876	0.648553	0.204676	4	0.0702467	11	0	60.1888	0.000132744
2	1	0	0	0	1	599.154	0.613309	0.613065	0.0362035	4	0.0709583	11	0	67.279	2.21951e-05
2	1	0	1	0	1	606.244	0.577859	0.577645	0.00109383	4	0.0710566	11	0	0.000000000000000E+000	6.31844e-07
2	0	0	1	0	1	613.334	0.542408	0.542202	-0.00865183	4	0.0710227	11	0	6.0916	-4.69104e-06
2	1	0	1	0	1	620.424	0.506957	0.506711	-0.00880338	4	0.0709584	11	0	13.1818	-4.46077e-06
2	0	0	1	0	1	627.514	0.471505	0.471293	-0.0116633	4	0.0708822	11	0	20.272	-5.49683e-06
2	1	0	0	0	0	634.462	0.463267	0.463024	0.0124159	5	0.0708601	11	0	2.5964	5.74884e-06
2	1	0	1	0	0	641.552	0.498718	0.498452	0.011647	5	0.0709447	11	0	9.6866	5.8055e-06
2	1	0	1	0	0	648.642	0.534169	0.534013	0.0115018	5	0.0710306	11	0	16.7767	6.14213e-06
2	1	0	1	0	0	655.732	0.56962	0.569414	0.0183172	5	0.0711335	11	0	23.8669	1.04301e-05
2	1	0	1	0	0	662.822	0.605071	0.604883	0.0472935	5	0.071334	11	0	30.9571	2.8607e-05
[...]
2	1	0	1	0	1	775.895	0.67048	0.670242	0.609764	6	0.0907289	11	0	44.0389	0.000408689
2	1	0	1	0	1	782.758	0.695196	0.694977	1.18067	6	0.0978099	11	0	50.9017	0.000820537
2	1	0	1	0	1	789.848	0.659744	0.659485	0.310543	6	0.102502	11	0	57.9919	0.000204799
2	1	0	1	0	1	796.938	0.624294	0.624079	0.0605278	6	0.10361	11	0	65.082	3.77741e-05
2	0	0	0	0	1	804.028	0.588843	0.588602	0.00462711	6	0.103793	11	0	72.1722	2.72352e-06
2	1	0	1	0	1	811.118	0.553393	0.553208	-0.00548961	6	0.103779	11	0	4.4937	-3.0369e-06
2	0	0	1	0	1	818.209	0.517942	0.517727	-0.0103122	6	0.103721	11	0	11.5839	-5.33888e-06
2	1	0	1	0	1	825.299	0.482491	0.482258	-0.00984375	6	0.103648	11	0	18.6741	-4.74723e-06
2	1	0	1	0	0	832.246	0.452283	0.452049	0.0108143	7	0.103577	11	0	0.3995	4.88861e-06
2	1	0	1	0	0	839.337	0.487734	0.487509	0.011046	7	0.10366	11	0	7.4897	5.38501e-06
2	1	0	1	0	0	846.427	0.523184	0.52298	0.0123894	7	0.103745	11	0	14.5798	6.47942e-06
2	1	0	0	0	0	853.517	0.558635	0.558393	0.0146884	7	0.103837	11	0	21.67	8.20191e-06
2	1	0	1	0	0	860.607	0.594085	0.593872	0.0305436	7	0.103985	11	0	28.7601	1.8139e-05
2	1	0	1	0	0	867.697	0.629537	0.629374	0.117967	7	0.104434	11	0	35.8503	7.42456e-05
2	1	0	1	0	0	874.787	0.664988	0.664766	0.499789	7	0.106342	11	0	42.9405	0.000332243
2	1	0	1	0	0	881.785	0.700014	0.699745	1.38264	7	0.112694	11	0	49.938	0.000967497
2	1	0	1	0	0	888.74	0.665237	0.665038	0.403684	7	0.118346	11	0	56.8934	0.000268465
2	1	0	1	0	0	895.83	0.629787	0.629569	0.0842466	7	0.119822	11	0	63.9835	5.3039e-05
2	1	0	1	0	0	902.921	0.594336	0.594103	0.011268	7	0.120097	11	0	71.0737	6.69432e-06
2	0	0	1	0	0	910.011	0.558885	0.558673	-0.00538028	7	0.120101	11	0	3.2954	-3.00582e-06
2	0	0	1	0	0	917.101	0.523433	0.523166	-0.00996223	7	0.120046	11	0	10.3856	-5.2119e-06
2	1	0	1	0	0	924.191	0.487983	0.487781	-0.00981265	7	0.119975	11	0	17.4757	-4.78642e-06
2	0	0	0	0	0	931.281	0.452532	0.452291	-0.0121862	7	0.119893	11	0	24.5659	-5.51171e-06
2	1	0	1	0	1	938.229	0.482241	0.482006	0.012398	8	0.119962	11	0	6.3912	5.97593e-06
2	1	0	1	0	1	945.319	0.517692	0.517449	0.0125116	8	0.120046	11	0	13.4813	6.47409e-06
2	1	0	1	0	1	952.409	0.553143	0.552903	0.0147221	8	0.120135	11	0	20.5715	8.13992e-06
2	1	0	1	0	1	959.499	0.588594	0.588376	0.0266033	8	0.120267	11	0	27.6617	1.56528e-05
2	1	0	1	0	1	966.59	0.624045	0.623859	0.0936225	8	0.120628	11	0	34.7519	5.84073e-05
2	1	0	1	0	1	973.68	0.659495	0.659258	0.403135	8	0.122144	11	0	41.842	0.00026577
2	1	0	0	0	1	980.77	0.694946	0.694707	1.28682	8	0.127748	11	0	48.9322	0.000893962
2	1	0	1	0	1	987.633	0.67073	0.670508	0.521502	8	0.134385	11	0	55.7949	0.000349671
2	1	0	1	0	1	994.723	0.635278	0.635088	0.118031	8	0.136388	11	0	62.8851	7.49598e-05
2	1	0	1	0	1	1001.81	0.599828	0.599601	0.0175545	8	0.136779	11	0	69.9752	1.05257e-05
2	0	0	0	0	1	1008.9	0.564377	0.564179	-0.00433555	8	0.136804	11	0	1.8974	-2.44603e-06
2	0	0	1	0	1	1015.99	0.528926	0.528678	-0.00964404	8	0.136754	11	0	8.9876	-5.09859e-06
2	1	0	1	0	1	1023.08	0.493476	0.493319	-0.00956025	8	0.136685	11	0	16.0777	-4.71625e-06
2	0	0	1	0	1	1030.17	0.458025	0.457762	-0.0121337	8	0.136605	11	0	23.1679	-5.55436e-06
2	1	0	1	0	0	1037.12	0.476749	0.476526	0.0124487	9	0.136648	11	0	5.2927	5.93215e-06
2	1	0	1	0	0	1044.21	0.5122	0.51195	0.0126685	9	0.136732	11	0	12.3829	6.48564e-06
2	1	0	1	0	0	1051.3	0.54765	0.547377	0.0134764	9	0.136819	11	0	19.473	7.37667e-06
2	1	0	0	0	0	1058.39	0.583101	0.58285	0.0221874	9	0.136938	11	0	26.5632	1.29319e-05
2	1	0	1	0	0	1065.48	0.618552	0.618339	0.0748788	9	0.137233	11	0	33.6534	4.63005e-05
2	1	0	1	0	0	1070.18	0.64202	0.641815	0.196582	9	0.137822	11	0	38.3469	0.000126169

File: 20251112_2-148_003_alpha_Na_first_1_K2_01_CVA_C01.mpt
EC-Lab ASCII FILE
Nb header lines : 66

Cyclic Voltammetry Advanced

Run on channel : 1 (SN 69187)
User :
CE vs. WE compliance from -10 V to 10 V
Electrode connection : standard
Potential control : Ewe
Ewe ctrl range : min = -1.00 V, max = 1.00 V
Safety Limits :
	Do not start on E overload
Acquisition started on : 11/12/2025 17:41:45.774
Loaded Setting File :  C:\Users\User\Documents\EC-Lab\Data\Yatsuzuka\20251030_2-147_gamma_reproducibility\20251030_2-147_001_gamma1_K_1.mps
Saved on :
	File : 20251112_2-148_003_alpha_Na_first_1_K2_01_CVA_C01.mpr
	Directory : C:\Users\User\Documents\EC-Lab\Data\Yatsuzuka\20251112_2-148_alpha_reproducibility\
	Host : 192.109.209.127
Device : SP-150e (SN .003883)
Address : 192.109.209.128
EC-Lab for windows v11.52 (software)
Internet server v11.52 (firmware)
Command interpretor v11.50 (firmware)
Electrode material :
Initial state :
Electrolyte :
Comments :
Electrode surface area : 0.001 cm2
Characteristic mass : 0.001 g
Equivalent Weight : 0.000 g/eq.
Density : 0.000 g/cm3
Volume (V) : 0.001 cm3
Cycle Definition : Charge/Discharge alternance
Ei (V)              0.350
vs.                 Ref
ti (h:m:s)          0:00:10.0000
dti (s)             0.0000
dE/dt               10.000
dE/dt unit          mV/s
E1 (V)              0.450
vs.                 Ref
t1 (h:m:s)          0:00:0.0000
dt1 (s)             0.1000
Step percent        50
N                   10
E range min (V)     -1.000
E range max (V)     1.000
I Range             Auto
I Range min         Unset
I Range max         Unset
I Range init        Unset
Bandwidth           5
E2 (V)              0.350
vs.                 Ref
t2 (h:m:s)          0:00:0.0000
dt2 (s)             0.1000
nc cycles           9
nr                  1
Reverse Scan        0
Ef (V)              0.000
vs.                 Eoc
tf (h:m:s)          0:00:0.0000
dtf (s)             0.1000

mode	ox/red	error	control changes	Ns changes	counter inc.	time/s	control/V	Ewe/V	<I>/mA	cycle number	(Q-Qo)/C	I Range	Ns	step time/s	P/W
2	0	0	0	0	0	0.000000000000000E+000	0.34995	0.349609	-0.00490859	1	0.0000000E+000	13	0	0.000000000000000E+000	-1.71609e-06
2	1	0	1	0	0	1.7849	0.3678	0.367591	0.0296466	1	5.79226e-05	13	0	1.7576	1.08978e-05
2	1	0	1	0	0	3.5325	0.385275	0.385011	0.0238888	1	0.000113006	13	0	3.5052	9.19745e-06
2	1	0	1	0	0	5.2801	0.402751	0.402496	0.0201196	1	0.00016424	13	0	5.2528	8.09804e-06
2	1	0	1	0	0	7.0277	0.420227	0.42003	0.0211148	1	0.000212217	13	0	7.0004	8.86885e-06
2	1	0	1	0	0	8.7753	0.437703	0.437447	0.025987	1	0.000257074	13	0	8.748	1.13679e-05
2	0	0	1	0	0	10.4896	0.445142	0.444856	-0.0277181	1	0.000278255	13	0	0.4444	-1.23306e-05
2	0	0	1	0	0	12.2371	0.427667	0.427369	-0.030632	1	0.000239466	13	0	2.1919	-1.30912e-05
2	0	0	1	0	0	13.9847	0.410191	0.409941	-0.0295862	1	0.000195912	13	0	3.9395	-1.21286e-05
2	0	0	1	0	0	15.7323	0.392715	0.39244	-0.0263268	1	0.000147808	13	0	5.6871	-1.03317e-05
2	0	0	1	0	0	17.4799	0.375239	0.374997	-0.0257603	1	9.47209e-05	13	0	7.4347	-9.66003e-06
2	0	0	1	0	0	19.2275	0.357764	0.357468	-0.0282232	1	3.5733e-05	13	0	9.1823	-1.00889e-05
2	1	0	1	0	1	20.9427	0.359411	0.35918	0.0253741	2	3.42928e-05	13	0	0.8938	9.11386e-06
2	1	0	1	0	1	22.6903	0.376887	0.376614	0.0278362	2	8.94537e-05	13	0	2.6414	1.04835e-05
2	1	0	1	0	1	24.4379	0.394363	0.394122	0.0309461	2	0.000141643	13	0	4.389	1.21965e-05
2	1	0	1	0	1	26.1854	0.411838	0.411625	0.0332338	2	0.000190379	13	0	6.1365	1.36799e-05
2	1	0	1	0	1	27.933	0.429314	0.429112	0.0333362	2	0.000236064	13	0	7.8841	1.4305e-05
2	1	0	1	0	1	29.6806	0.446791	0.446586	0.0285902	2	0.000279377	13	0	9.6317	1.2768e-05
2	0	0	1	0	1	31.3749	0.436255	0.435995	-0.0287213	2	0.000259471	13	0	1.3481	-1.25223e-05
2	0	0	1	0	1	33.1225	0.418779	0.41847	-0.0276642	2	0.00021799	13	0	3.0957	-1.15766e-05
2	0	0	1	0	1	34.8701	0.401303	0.401023	-0.0327541	2	0.000172122	13	0	4.8433	-1.31351e-05
2	0	0	1	0	1	36.6177	0.383828	0.383502	-0.034999	2	0.00012161	13	0	6.5909	-1.34222e-05
2	0	0	1	0	1	38.3653	0.366352	0.36603	-0.0341748	2	6.56765e-05	13	0	8.3385	-1.2509e-05
2	0	0	1	0	0	40.003	0.35005	0.349762	-0.0447981	3	7.57131e-06	13	0	9.9762	-1.56687e-05
2	1	0	1	0	0	41.7881	0.3679	0.367673	0.0399203	3	6.227e-05	13	0	1.6926	1.46776e-05
2	1	0	1	0	0	43.5357	0.385375	0.385119	0.0364016	3	0.000116044	13	0	3.4402	1.4019e-05
2	1	0	1	0	0	45.2833	0.402851	0.402613	0.0274603	3	0.000166427	13	0	5.1878	1.10559e-05
2	1	0	1	0	0	47.0309	0.420327	0.420078	0.0198906	3	0.000213637	13	0	6.9354	8.35559e-06
2	1	0	1	0	0	48.7784	0.437802	0.437573	0.017021	3	0.000258094	13	0	8.6829	7.44791e-06
2	0	0	1	0	0	50.5327	0.444643	0.444334	-0.0207377	3	0.000277995	13	0	0.5093	-9.21447e-06
2	0	0	1	0	0	52.2803	0.427167	0.426873	-0.0185101	3	0.000238867	13	0	2.2569	-7.90147e-06
2	0	0	1	0	0	54.0279	0.409692	0.409487	-0.018185	3	0.000195142	13	0	4.0045	-7.44651e-06
2	0	0	1	0	0	55.7755	0.392216	0.391961	-0.0235624	3	0.000146912	13	0	5.7521	-9.23556e-06
2	0	0	1	0	0	57.523	0.374741	0.374484	-0.0331321	3	9.37327e-05	13	0	7.4996	-1.24074e-05
2	0	0	1	0	0	59.2706	0.357265	0.357013	-0.0433827	3	3.474e-05	13	0	9.2472	-1.54882e-05
2	1	0	1	0	1	60.9858	0.35991	0.359694	0.036053	4	3.68922e-05	13	0	0.9587	1.29681e-05
2	1	0	1	0	1	62.7334	0.377386	0.377168	0.0258169	4	9.18946e-05	13	0	2.7063	9.73729e-06
2	1	0	1	0	1	64.481	0.394863	0.394644	0.0212311	4	0.000143893	13	0	4.4539	8.37872e-06
2	1	0	1	0	1	66.2285	0.412338	0.412127	0.0254794	4	0.000192502	13	0	6.2014	1.05008e-05
2	1	0	1	0	1	67.9761	0.429814	0.429589	0.0291293	4	0.000238051	13	0	7.949	1.25136e-05
2	1	0	1	0	1	69.7237	0.44729	0.447067	0.0310153	4	0.000281149	13	0	9.6966	1.38659e-05
2	0	0	1	0	1	71.478	0.435156	0.434917	-0.0182646	4	0.000257532	13	0	1.458	-7.9436e-06
2	0	0	1	0	1	73.2256	0.41768	0.417423	-0.0307282	4	0.000215803	13	0	3.2056	-1.28266e-05
2	0	0	1	0	1	74.9731	0.400205	0.399944	-0.0355705	4	0.000169761	13	0	4.9531	-1.42262e-05
2	0	0	1	0	1	76.7207	0.382729	0.382416	-0.0357013	4	0.000119049	13	0	6.7007	-1.36528e-05
2	0	0	1	0	1	78.4683	0.365253	0.364955	-0.0329202	4	6.28741e-05	13	0	8.4483	-1.20144e-05
2	1	0	1	0	0	80.1536	0.351623	0.351367	0.0316711	5	1.18079e-05	12	0	0.0649	1.11282e-05
2	1	0	1	0	0	81.9311	0.369398	0.369179	0.0277718	5	6.75301e-05	13	0	1.8424	1.02528e-05
2	1	0	1	0	0	83.6787	0.386873	0.386609	0.0311921	5	0.000120935	13	0	3.59	1.20591e-05
2	1	0	1	0	0	85.4263	0.404349	0.404062	0.0333017	5	0.000170941	13	0	5.3376	1.3456e-05
2	1	0	1	0	0	87.1739	0.421825	0.421593	0.0332744	5	0.000217794	13	0	7.0852	1.40282e-05
2	1	0	1	0	0	88.9214	0.4393	0.439081	0.0276311	5	0.000261863	13	0	8.8327	1.21323e-05
2	0	0	1	0	0	90.6757	0.443145	0.442925	-0.0261339	5	0.000275475	13	0	0.5942	-1.15754e-05
2	0	0	1	0	0	92.4233	0.425669	0.425369	-0.0315089	5	0.000235939	13	0	2.3418	-1.34029e-05
2	0	0	1	0	0	94.1709	0.408194	0.40793	-0.0306097	5	0.000191952	13	0	4.0894	-1.24866e-05
2	0	0	1	0	0	95.9185	0.390718	0.390463	-0.027787	5	0.000143394	13	0	5.837	-1.08498e-05
2	0	0	1	0	0	97.666	0.373243	0.37297	-0.02409	5	8.98453e-05	13	0	7.5845	-8.98483e-06
2	0	0	1	0	0	99.4136	0.355766	0.355502	-0.0310009	5	3.03722e-05	13	0	9.3321	-1.10209e-05
2	1	0	1	0	1	101.129	0.361408	0.361136	0.0387238	6	4.3252e-05	13	0	1.1085	1.39846e-05
2	1	0	1	0	1	102.876	0.378885	0.378662	0.0381967	6	9.79442e-05	13	0	2.8561	1.44636e-05
2	1	0	1	0	1	104.624	0.396361	0.396135	0.0311237	6	0.000149493	13	0	4.6037	1.23292e-05
[...]
2	1	0	1	0	0	129.064	0.440798	0.440566	0.0320798	7	0.000266836	13	0	8.9825	1.41333e-05
2	0	0	1	0	0	130.819	0.441647	0.441377	-0.0170289	7	0.000273611	13	0	0.744	-7.51617e-06
2	0	0	1	0	0	132.566	0.424172	0.42392	-0.0226549	7	0.000233676	13	0	2.4916	-9.60385e-06
2	0	0	1	0	0	134.314	0.406696	0.406441	-0.0279649	7	0.000189332	13	0	4.2392	-1.13661e-05
2	0	0	1	0	0	136.061	0.38922	0.389011	-0.0324003	7	0.000140502	13	0	5.9868	-1.26041e-05
2	0	0	1	0	0	137.809	0.371745	0.371522	-0.0388547	7	8.65867e-05	13	0	7.7343	-1.44354e-05
2	0	0	1	0	0	139.557	0.354268	0.353979	-0.0438767	7	2.67379e-05	13	0	9.4819	-1.55314e-05
2	1	0	1	0	1	141.272	0.362906	0.362688	0.0395601	8	4.87709e-05	13	0	1.2583	1.4348e-05
2	1	0	1	0	1	143.019	0.380383	0.38015	0.037523	8	0.000103215	13	0	3.0059	1.42644e-05
2	1	0	1	0	1	144.767	0.397858	0.397606	0.0335742	8	0.000154367	13	0	4.7534	1.33493e-05
2	1	0	1	0	1	146.514	0.415334	0.41513	0.0275359	8	0.000202301	13	0	6.501	1.1431e-05
2	1	0	1	0	1	148.262	0.43281	0.432613	0.0245683	8	0.000247288	13	0	8.2486	1.06286e-05
2	1	0	0	0	1	149.979	0.450011	0.449773	0.0403583	8	0.000289252	13	0	9.9655	1.81521e-05
2	0	0	1	0	1	151.764	0.43216	0.43188	-0.0306644	8	0.000251899	13	0	1.7576	-1.32433e-05
2	0	0	1	0	1	153.511	0.414685	0.414415	-0.0325805	8	0.000209536	13	0	3.5051	-1.35018e-05
2	0	0	1	0	1	155.259	0.397209	0.396882	-0.0338295	8	0.000162838	13	0	5.2527	-1.34263e-05
2	0	0	1	0	1	157.007	0.379733	0.379421	-0.0340135	8	0.000111405	13	0	7.0003	-1.29054e-05
2	0	0	1	0	1	158.754	0.362257	0.361985	-0.0319409	8	5.44398e-05	13	0	8.7479	-1.15621e-05
2	1	0	1	0	0	160.469	0.354918	0.354671	0.0249987	9	2.40896e-05	13	0	0.3944	8.86632e-06
2	1	0	1	0	0	162.217	0.372393	0.372169	0.0228699	9	7.93801e-05	13	0	2.142	8.51148e-06
2	1	0	1	0	0	163.965	0.389869	0.389637	0.0220453	9	0.000132127	13	0	3.8896	8.58964e-06
2	1	0	1	0	0	165.712	0.407345	0.407052	0.0255262	9	0.000181503	13	0	5.6372	1.03905e-05
2	1	0	1	0	0	167.46	0.42482	0.42453	0.0285043	9	0.000227711	13	0	7.3847	1.21009e-05
2	1	0	1	0	0	169.207	0.442296	0.442082	0.0315313	9	0.000271344	13	0	9.1323	1.39394e-05
2	0	0	1	0	0	170.962	0.440149	0.439935	-0.0158768	9	0.00027093	13	0	0.8938	-6.98475e-06
2	0	0	1	0	0	172.709	0.422674	0.422374	-0.0226788	9	0.000230599	13	0	2.6414	-9.57892e-06
2	0	0	1	0	0	174.457	0.405198	0.404883	-0.0299624	9	0.000185907	13	0	4.389	-1.21312e-05
2	0	0	1	0	0	176.204	0.387723	0.387426	-0.0366178	9	0.000136806	13	0	6.1365	-1.41867e-05
2	0	0	1	0	0	177.952	0.370246	0.369991	-0.0405699	9	8.25255e-05	13	0	7.8841	-1.50105e-05
2	0	0	1	0	0	179.7	0.35277	0.352479	-0.0423323	9	2.2243e-05	13	0	9.6317	-1.49213e-05
2	1	0	1	0	1	181.415	0.364405	0.364178	0.0284014	10	5.53837e-05	13	0	1.3431	1.03432e-05
2	1	0	1	0	1	183.162	0.381881	0.381638	0.0217754	10	0.000109622	13	0	3.0907	8.31033e-06
2	1	0	1	0	1	184.91	0.399356	0.399144	0.0208814	10	0.000160512	13	0	4.8382	8.33467e-06
2	1	0	1	0	1	186.657	0.416832	0.416584	0.0246559	10	0.000208141	13	0	6.5858	1.02713e-05
2	1	0	1	0	1	188.405	0.434308	0.434113	0.0276325	10	0.00025285	13	0	8.3334	1.19956e-05
2	0	0	1	0	1	190.129	0.448438	0.4482	-0.0228232	10	0.00028875	12	0	0.065	-1.02294e-05
2	0	0	1	0	1	191.907	0.430662	0.43043	-0.0165425	10	0.000250877	13	0	1.8425	-7.12041e-06
2	0	0	1	0	1	193.654	0.413187	0.412958	-0.0225262	10	0.000208187	13	0	3.59	-9.30237e-06
2	0	0	1	0	1	195.402	0.395711	0.395451	-0.0324281	10	0.000161138	13	0	5.3376	-1.28237e-05
2	0	0	1	0	1	197.15	0.378235	0.377996	-0.036589	10	0.000109374	13	0	7.0852	-1.38305e-05
2	0	0	1	0	1	198.897	0.36076	0.36051	-0.0423119	10	5.19859e-05	13	0	8.8328	-1.52539e-05
2	0	0	0	0	1	199.971	0.35	0.349704	-0.0187359	10	1.36144e-05	13	0	9.9063	-6.55202e-06