Folder: SI_for_publications/ACS_Catal_2026/Figures_Na_K/main_figures/data/EC/20251112_2-148_alpha_reproducibility (part 17)

File: 20251112_2-148_003_alpha_Na_first_1_Na1_03_CVA_C01.mpt
EC-Lab ASCII FILE
Nb header lines : 66

Cyclic Voltammetry Advanced

Run on channel : 1 (SN 69187)
User :
CE vs. WE compliance from -10 V to 10 V
Electrode connection : standard
Potential control : Ewe
Ewe ctrl range : min = -1.00 V, max = 1.00 V
Safety Limits :
	Do not start on E overload
Acquisition started on : 11/12/2025 15:46:22.293
Loaded Setting File :  C:\Users\User\Documents\EC-Lab\Data\Yatsuzuka\20251030_2-147_gamma_reproducibility\20251030_2-147_001_gamma1_K_1.mps
Saved on :
	File : 20251112_2-148_003_alpha_Na_first_1_Na1_03_CVA_C01.mpr
	Directory : C:\Users\User\Documents\EC-Lab\Data\Yatsuzuka\20251112_2-148_alpha_reproducibility\
	Host : 192.109.209.127
Device : SP-150e (SN .003883)
Address : 192.109.209.128
EC-Lab for windows v11.52 (software)
Internet server v11.52 (firmware)
Command interpretor v11.50 (firmware)
Electrode material :
Initial state :
Electrolyte :
Comments :
Electrode surface area : 0.001 cm2
Characteristic mass : 0.001 g
Equivalent Weight : 0.000 g/eq.
Density : 0.000 g/cm3
Volume (V) : 0.001 cm3
Cycle Definition : Charge/Discharge alternance
Ei (V)              0.450
vs.                 Ref
ti (h:m:s)          0:00:10.0000
dti (s)             0.0000
dE/dt               5.000
dE/dt unit          mV/s
E1 (V)              0.700
vs.                 Ref
t1 (h:m:s)          0:00:0.0000
dt1 (s)             0.1000
Step percent        50
N                   10
E range min (V)     -1.000
E range max (V)     1.000
I Range             10 mA
I Range min         Unset
I Range max         Unset
I Range init        Unset
Bandwidth           5
E2 (V)              0.450
vs.                 Ref
t2 (h:m:s)          0:00:0.0000
dt2 (s)             0.1000
nc cycles           14
nr                  1
Reverse Scan        0
Ef (V)              0.000
vs.                 Eoc
tf (h:m:s)          0:00:0.0000
dtf (s)             0.1000

mode	ox/red	error	control changes	Ns changes	counter inc.	time/s	control/V	Ewe/V	<I>/mA	cycle number	(Q-Qo)/C	I Range	Ns	step time/s	P/W
2	1	0	1	0	0	231.75	0.449961	0.449773	0.0118975	1	0.0000000E+000	11	0	0.000000000000000E+000	5.35119e-06
2	1	0	1	0	0	244.587	0.514147	0.513952	0.0280689	1	0.000305315	11	0	12.7822	1.44261e-05
2	1	0	1	0	0	257.47	0.578558	0.578311	0.0595069	1	0.000865893	11	0	25.6644	3.44135e-05
2	1	0	1	0	0	270.352	0.642968	0.642786	0.207357	1	0.00232234	11	0	38.5465	0.000133286
2	1	0	1	0	0	283.016	0.693698	0.693455	0.717386	1	0.00872676	11	0	51.2112	0.000497475
2	1	0	1	0	0	295.899	0.629287	0.629099	0.0656851	1	0.0123606	11	0	64.0933	4.13224e-05
2	0	0	1	0	0	308.781	0.564877	0.564677	-0.00256255	1	0.0125949	11	0	1.1983	-1.44702e-06
2	0	0	1	0	0	321.663	0.500466	0.500204	-0.0125082	1	0.0125039	11	0	14.0805	-6.25667e-06
2	1	0	1	0	1	334.402	0.463267	0.462998	0.0149674	2	0.0124246	11	0	2.5964	6.92987e-06
2	0	0	1	0	1	347.284	0.527678	0.52746	0.015057	2	0.0126287	11	0	15.4785	7.94196e-06
2	1	0	1	0	1	360.167	0.592089	0.591865	0.0318001	2	0.0128889	11	0	28.3607	1.88214e-05
2	1	0	1	0	1	373.049	0.656499	0.656294	0.188387	2	0.0139256	11	0	41.2428	0.000123637
2	1	0	1	0	1	385.703	0.680217	0.680004	0.379542	2	0.0197732	11	0	53.8975	0.00025809
2	1	0	1	0	1	398.586	0.615806	0.615602	0.0230955	2	0.0215598	11	0	66.7797	1.42176e-05
2	1	0	0	0	1	411.468	0.551395	0.55114	-0.00673865	2	0.0215901	11	0	6.491	-3.71394e-06
2	1	0	1	0	1	424.35	0.486985	0.486773	-0.0103264	2	0.0214589	11	0	19.3731	-5.02662e-06
2	1	0	1	0	0	437.089	0.476749	0.476479	0.0131688	3	0.0214392	11	0	5.2927	6.27463e-06
2	1	0	0	0	0	449.972	0.541159	0.540875	0.0143467	3	0.0216285	11	0	18.1748	7.75978e-06
2	1	0	1	0	0	462.854	0.60557	0.60541	0.0322999	3	0.0218998	11	0	31.0569	1.95547e-05
2	1	0	1	0	0	475.736	0.669981	0.66979	0.269051	3	0.0233089	11	0	43.9391	0.000180208
2	1	0	1	0	0	488.391	0.666735	0.66655	0.206837	3	0.0287921	11	0	56.5938	0.000137867
2	1	0	1	0	0	501.273	0.602325	0.602079	0.00906316	3	0.0297086	11	0	69.4759	5.45674e-06
2	0	0	1	0	0	514.155	0.537913	0.537691	-0.0111845	3	0.0296575	11	0	9.6866	-6.01382e-06
2	0	0	1	0	0	527.037	0.473503	0.473275	-0.0115053	3	0.0295137	11	0	22.5687	-5.44518e-06
2	1	0	1	0	1	539.776	0.49023	0.490031	0.0161727	4	0.0295623	11	0	7.9889	7.92514e-06
2	1	0	1	0	1	552.659	0.554641	0.554401	0.0154079	4	0.0297472	11	0	20.8711	8.54213e-06
2	1	0	1	0	1	565.541	0.619051	0.618838	0.0475903	4	0.0300648	11	0	33.7532	2.94507e-05
2	1	0	1	0	1	578.423	0.683461	0.683309	0.398112	4	0.0321306	11	0	46.6353	0.000272034
2	1	0	1	0	1	591.078	0.653253	0.653035	0.113633	4	0.0368452	11	0	59.2901	7.42062e-05
2	1	0	0	0	1	603.96	0.588843	0.588623	0.000535522	4	0.0372934	11	0	0.000000000000000E+000	3.1522e-07
2	1	0	1	0	1	616.842	0.524433	0.524237	-0.00812633	4	0.0372006	11	0	13.0818	-4.26013e-06
2	0	0	1	0	1	629.724	0.460021	0.45981	-0.0111837	4	0.037048	11	0	25.964	-5.14239e-06
2	1	0	0	0	0	642.464	0.503711	0.503486	0.0122643	5	0.037166	11	0	10.6852	6.17488e-06
2	1	0	1	0	0	655.346	0.568122	0.567891	0.0142207	5	0.0373523	11	0	23.5673	8.07581e-06
2	1	0	1	0	0	668.228	0.632533	0.632335	0.0628628	5	0.0377576	11	0	36.4495	3.97503e-05
2	1	0	0	0	0	681.11	0.696943	0.696736	0.589969	5	0.0408664	11	0	49.3316	0.000411052
2	1	0	1	0	0	693.765	0.639773	0.639542	0.0570196	5	0.0442955	11	0	61.9863	3.64664e-05
2	0	0	1	0	0	706.647	0.575361	0.575103	-0.00421762	5	0.0444861	11	0	2.9959	-2.42556e-06
2	1	0	1	0	0	719.529	0.510951	0.510771	-0.0096489	5	0.0443695	11	0	15.878	-4.92837e-06
2	1	0	1	0	1	732.268	0.452782	0.452584	0.0147399	6	0.044225	11	0	0.4993	6.67104e-06
2	1	0	1	0	1	745.151	0.517193	0.516955	0.0161603	6	0.0443988	11	0	13.3815	8.35416e-06
2	1	0	1	0	1	758.033	0.581603	0.581389	0.0201437	6	0.0445918	11	0	26.2636	1.17113e-05
2	1	0	1	0	1	770.915	0.646014	0.645813	0.0999225	6	0.0451476	11	0	39.1457	6.45312e-05
2	1	0	1	0	1	783.57	0.690702	0.690536	0.441377	6	0.0492497	11	0	51.8004	0.000304787
2	1	0	0	0	1	796.452	0.626291	0.626074	0.0277877	6	0.0513254	11	0	64.6826	1.73972e-05
2	1	0	1	0	1	809.334	0.561881	0.561675	-0.00639535	6	0.051374	11	0	6.0916	-3.59211e-06
2	0	0	1	0	1	822.216	0.497469	0.497252	-0.0137331	6	0.0512441	11	0	18.9738	-6.82879e-06
2	1	0	0	0	0	834.956	0.466263	0.466026	0.0125694	7	0.0511663	11	0	3.1956	5.85766e-06
2	0	0	1	0	0	847.838	0.530674	0.530449	0.0112019	7	0.0513396	11	0	16.0777	5.94204e-06
2	1	0	1	0	0	860.72	0.595085	0.594867	0.0249153	7	0.0515487	11	0	28.9599	1.48213e-05
2	1	0	0	0	0	873.602	0.659495	0.659234	0.152676	7	0.0523581	11	0	41.842	0.000100649
2	1	0	1	0	0	886.257	0.677221	0.677007	0.257593	7	0.0569199	11	0	54.4967	0.000174393
2	1	0	0	0	0	899.139	0.61281	0.612579	0.0117597	7	0.0580751	11	0	67.3788	7.20373e-06
2	1	0	1	0	0	912.021	0.548399	0.548156	-0.00836433	7	0.0580432	11	0	8.7879	-4.58496e-06
2	0	0	1	0	0	924.903	0.483989	0.483748	-0.0113685	7	0.0579041	11	0	21.67	-5.49948e-06
2	1	0	1	0	1	937.643	0.479745	0.479541	0.0115824	8	0.0578943	11	0	5.8919	5.55423e-06
2	1	0	1	0	1	950.525	0.544155	0.543929	0.0161839	8	0.0580666	11	0	18.774	8.8029e-06
2	1	0	1	0	1	963.407	0.608565	0.608364	0.0289153	8	0.0583045	11	0	31.6561	1.7591e-05
2	1	0	1	0	1	976.289	0.672977	0.672802	0.236677	8	0.0595309	11	0	44.5383	0.000159237
2	1	0	1	0	1	988.944	0.66374	0.663523	0.144655	8	0.0639705	11	0	57.1929	9.59822e-05
2	1	0	1	0	1	1001.83	0.599329	0.599096	0.00427084	8	0.0645775	11	0	70.0751	2.55865e-06
2	0	0	1	0	1	1014.71	0.534918	0.534665	-0.0116344	8	0.0644994	11	0	11.4841	-6.22052e-06
[...]
2	1	0	1	0	1	1207.2	0.572366	0.572207	-0.0039281	10	0.0770323	11	0	4.4937	-2.24769e-06
2	1	0	1	0	1	1220.08	0.507956	0.507708	-0.00878043	10	0.0769102	11	0	17.3758	-4.45789e-06
2	1	0	1	0	0	1232.82	0.455778	0.455573	0.0145103	11	0.0767815	11	0	1.0985	6.61049e-06
2	1	0	1	0	0	1245.7	0.520189	0.519948	0.0153284	11	0.0769484	11	0	13.9807	7.96997e-06
2	1	0	0	0	0	1258.59	0.584599	0.58438	0.0178189	11	0.0771326	11	0	26.8628	1.0413e-05
2	1	0	1	0	0	1271.47	0.64901	0.64886	0.093002	11	0.0776619	11	0	39.7449	6.03453e-05
2	1	0	0	0	0	1284.12	0.687706	0.687517	0.348458	11	0.0814396	11	0	52.3996	0.00023957
2	1	0	1	0	0	1297	0.623296	0.623099	0.0194139	11	0.0830291	11	0	65.2817	1.20968e-05
2	0	0	1	0	0	1309.89	0.558885	0.558632	-0.0103064	11	0.0830338	11	0	7.19	-5.7575e-06
2	0	0	0	0	0	1322.77	0.494474	0.49425	-0.0136287	11	0.0829015	11	0	20.0721	-6.736e-06
2	1	0	1	0	1	1335.51	0.469259	0.46904	0.0105095	12	0.0828383	11	0	3.7947	4.9294e-06
2	1	0	1	0	1	1348.39	0.53367	0.533477	0.0140051	12	0.0830051	11	0	16.6769	7.47141e-06
2	1	0	1	0	1	1361.27	0.598081	0.597829	0.0224938	12	0.083206	11	0	29.5591	1.34475e-05
2	1	0	1	0	1	1374.16	0.662491	0.662333	0.14678	12	0.0839915	11	0	42.4412	9.72171e-05
2	1	0	1	0	1	1386.81	0.674224	0.674024	0.202814	12	0.0881061	11	0	55.0959	0.000136702
2	1	0	1	0	1	1399.69	0.609814	0.609593	0.00451902	12	0.0889801	11	0	67.978	2.75476e-06
2	0	0	1	0	1	1412.57	0.545404	0.545134	-0.0107854	12	0.0889253	11	0	10.1858	-5.87949e-06
2	0	0	1	0	1	1425.46	0.480993	0.480774	-0.0140686	12	0.0887852	11	0	23.068	-6.7638e-06
2	1	0	1	0	0	1438.2	0.48274	0.482495	0.0148226	13	0.0887892	11	0	6.491	7.15184e-06
2	1	0	0	0	0	1451.08	0.547151	0.546926	0.0154589	13	0.0889563	11	0	19.3732	8.45485e-06
2	1	0	1	0	0	1463.96	0.611562	0.611373	0.0295352	13	0.0891875	11	0	32.2553	1.8057e-05
2	1	0	1	0	0	1476.84	0.675973	0.675764	0.238857	13	0.0903985	11	0	45.1375	0.000161411
2	1	0	1	0	0	1489.5	0.660744	0.660524	0.11476	13	0.0943468	11	0	57.7921	7.58018e-05
2	1	0	1	0	0	1502.38	0.596332	0.596107	0.000753383	13	0.0947963	11	0	0.000000000000000E+000	4.49097e-07
2	0	0	0	0	0	1515.26	0.531922	0.531715	-0.0123651	13	0.0947057	11	0	12.7823	-6.57469e-06
2	0	0	1	0	0	1528.14	0.467512	0.467304	-0.0100409	13	0.094559	11	0	25.6644	-4.69216e-06
2	1	0	1	0	1	1540.88	0.496222	0.495939	0.015197	14	0.0946302	11	0	9.1873	7.53676e-06
2	1	0	0	0	1	1553.76	0.560632	0.560385	0.0118126	14	0.0947983	11	0	22.0694	6.61958e-06
2	1	0	1	0	1	1566.65	0.625043	0.624857	0.0391876	14	0.0950823	11	0	34.9516	2.44866e-05
2	1	0	1	0	1	1579.53	0.689454	0.689267	0.377396	14	0.0969882	11	0	47.8337	0.000260126
2	1	0	1	0	1	1592.18	0.647262	0.647033	0.0637685	14	0.100298	11	0	60.4884	4.12604e-05
2	0	0	1	0	1	1605.07	0.582852	0.582646	-0.00451928	14	0.100501	11	0	2.896	-2.63314e-06
2	0	0	1	0	1	1617.95	0.51844	0.518248	-0.012753	14	0.10039	11	0	15.7782	-6.60923e-06
2	0	0	1	0	1	1630.83	0.45403	0.453812	-0.0150029	14	0.100238	11	0	28.6603	-6.80848e-06
2	1	0	1	0	0	1643.57	0.509702	0.509454	0.014623	15	0.100377	11	0	11.8835	7.44972e-06
2	0	0	1	0	0	1656.45	0.574114	0.573883	0.0139225	15	0.10055	11	0	24.7657	7.98989e-06
2	1	0	1	0	0	1669.33	0.638524	0.638346	0.0604145	15	0.100925	11	0	37.6478	3.85653e-05
2	1	0	1	0	0	1681.99	0.698192	0.69797	0.48083	15	0.10379	11	0	50.3025	0.000335605
2	1	0	1	0	0	1694.87	0.63378	0.633551	0.0302265	15	0.106047	11	0	63.1847	1.915e-05
2	0	0	0	0	0	1707.75	0.56937	0.569116	-0.00878187	15	0.106108	11	0	5.5923	-4.9979e-06
2	0	0	1	0	0	1720.64	0.50496	0.504715	-0.0120719	15	0.105983	11	0	18.4744	-6.09285e-06
2	0	0	0	0	0	1731.62	0.450011	0.449964	-0.000207749	15	0.10585	11	0	29.4613	-9.34794e-08

File: 20251112_2-148_003_alpha_Na_first_1_Na2_01_CVA_C01.mpt
EC-Lab ASCII FILE
Nb header lines : 66

Cyclic Voltammetry Advanced

Run on channel : 1 (SN 69187)
User :
CE vs. WE compliance from -10 V to 10 V
Electrode connection : standard
Potential control : Ewe
Ewe ctrl range : min = -1.00 V, max = 1.00 V
Safety Limits :
	Do not start on E overload
Acquisition started on : 11/12/2025 17:08:42.026
Loaded Setting File :  C:\Users\User\Documents\EC-Lab\Data\Yatsuzuka\20251030_2-147_gamma_reproducibility\20251030_2-147_001_gamma1_K_1.mps
Saved on :
	File : 20251112_2-148_003_alpha_Na_first_1_Na2_01_CVA_C01.mpr
	Directory : C:\Users\User\Documents\EC-Lab\Data\Yatsuzuka\20251112_2-148_alpha_reproducibility\
	Host : 192.109.209.127
Device : SP-150e (SN .003883)
Address : 192.109.209.128
EC-Lab for windows v11.52 (software)
Internet server v11.52 (firmware)
Command interpretor v11.50 (firmware)
Electrode material :
Initial state :
Electrolyte :
Comments :
Electrode surface area : 0.001 cm2
Characteristic mass : 0.001 g
Equivalent Weight : 0.000 g/eq.
Density : 0.000 g/cm3
Volume (V) : 0.001 cm3
Cycle Definition : Charge/Discharge alternance
Ei (V)              0.350
vs.                 Ref
ti (h:m:s)          0:00:10.0000
dti (s)             0.0000
dE/dt               10.000
dE/dt unit          mV/s
E1 (V)              0.450
vs.                 Ref
t1 (h:m:s)          0:00:0.0000
dt1 (s)             0.1000
Step percent        50
N                   10
E range min (V)     -1.000
E range max (V)     1.000
I Range             Auto
I Range min         Unset
I Range max         Unset
I Range init        Unset
Bandwidth           5
E2 (V)              0.350
vs.                 Ref
t2 (h:m:s)          0:00:0.0000
dt2 (s)             0.1000
nc cycles           9
nr                  1
Reverse Scan        0
Ef (V)              0.000
vs.                 Eoc
tf (h:m:s)          0:00:0.0000
dtf (s)             0.1000

mode	ox/red	error	control changes	Ns changes	counter inc.	time/s	control/V	Ewe/V	<I>/mA	cycle number	(Q-Qo)/C	I Range	Ns	step time/s	P/W
2	0	0	0	0	0	0.000000000000000E+000	0.34995	0.349838	-0.00198532	1	0.0000000E+000	13	0	0.000000000000000E+000	-6.94539e-07
2	1	0	1	0	0	1.725	0.3672	0.366942	0.0383497	1	5.4274e-05	13	0	1.6977	1.40721e-05
2	1	0	1	0	0	3.4726	0.384677	0.384419	0.0356372	1	0.000108739	13	0	3.4453	1.36996e-05
2	1	0	1	0	0	5.2201	0.402152	0.401916	0.0297997	1	0.000160262	13	0	5.1928	1.1977e-05
2	1	0	1	0	0	6.9677	0.419628	0.419414	0.0227855	1	0.00020907	13	0	6.9404	9.55657e-06
2	1	0	1	0	0	8.7153	0.437104	0.436878	0.0207515	1	0.000255461	13	0	8.688	9.06589e-06
2	0	0	1	0	0	10.4397	0.445642	0.445417	-0.0156632	1	0.000281508	13	0	0.3446	-6.97666e-06
2	0	0	1	0	0	12.1873	0.428166	0.427937	-0.0250514	1	0.000241065	13	0	2.0922	-1.07204e-05
2	0	0	1	0	0	13.9348	0.41069	0.410487	-0.0332974	1	0.000196255	13	0	3.8397	-1.36681e-05
2	0	0	1	0	0	15.6824	0.393214	0.39297	-0.0315485	1	0.000147595	13	0	5.5873	-1.23976e-05
2	0	0	1	0	0	17.4299	0.375739	0.375482	-0.0311357	1	9.47863e-05	13	0	7.3348	-1.16909e-05
2	0	0	1	0	0	19.1775	0.358263	0.357934	-0.0301878	1	3.69334e-05	13	0	9.0824	-1.08052e-05
2	1	0	1	0	1	20.8927	0.358912	0.358654	0.0253642	2	3.28729e-05	13	0	0.7938	9.09697e-06
2	1	0	1	0	1	22.6403	0.376388	0.376179	0.0291693	2	8.70758e-05	13	0	2.5414	1.09729e-05
2	1	0	1	0	1	24.3879	0.393864	0.393607	0.0339414	2	0.000139066	13	0	4.289	1.33596e-05
2	1	0	1	0	1	26.1355	0.411339	0.411162	0.0336158	2	0.000188526	13	0	6.0366	1.38215e-05
2	1	0	1	0	1	27.8831	0.428815	0.428584	0.0302421	2	0.00023557	13	0	7.7842	1.29613e-05
2	1	0	1	0	1	29.6307	0.446291	0.446044	0.0278355	2	0.000280633	13	0	9.5318	1.24159e-05
2	0	0	1	0	1	31.3849	0.436155	0.435864	-0.0239933	2	0.000260811	13	0	1.3431	-1.04578e-05
2	0	0	1	0	1	33.1325	0.418679	0.418414	-0.0308043	2	0.000217948	13	0	3.0907	-1.28889e-05
2	0	0	1	0	1	34.8801	0.401203	0.400938	-0.0337336	2	0.000171098	13	0	4.8383	-1.35251e-05
2	0	0	1	0	1	36.6277	0.383728	0.383482	-0.0331479	2	0.000120375	13	0	6.5859	-1.27116e-05
2	0	0	1	0	1	38.3753	0.366252	0.366016	-0.0319225	2	6.50452e-05	13	0	8.3335	-1.16841e-05
2	0	0	1	0	0	40.0305	0.350324	0.350024	0.00293978	3	8.54194e-06	13	0	9.9887	1.02899e-06
2	1	0	1	0	0	41.8381	0.368399	0.368138	0.0257792	3	6.35267e-05	13	0	1.7426	9.4903e-06
2	1	0	1	0	0	43.5856	0.385874	0.385575	0.0259961	3	0.000116595	13	0	3.4901	1.00235e-05
2	1	0	1	0	0	45.3332	0.40335	0.403091	0.0272596	3	0.000167044	13	0	5.2377	1.09881e-05
2	1	0	1	0	0	47.0808	0.420827	0.420593	0.0224987	3	0.000215148	13	0	6.9853	9.46278e-06
2	1	0	1	0	0	48.8283	0.438302	0.43807	0.0210124	3	0.0002611	13	0	8.7328	9.2049e-06
2	0	0	1	0	0	50.5827	0.444144	0.44391	-0.0242015	3	0.000280117	13	0	0.5593	-1.07433e-05
2	0	0	1	0	0	52.3302	0.426669	0.426424	-0.0191899	3	0.000239175	13	0	2.3068	-8.18306e-06
2	0	0	1	0	0	54.0778	0.409192	0.408976	-0.0260051	3	0.000194208	13	0	4.0544	-1.06355e-05
2	0	0	1	0	0	55.8254	0.391716	0.391432	-0.0353831	3	0.000145366	13	0	5.802	-1.38501e-05
2	0	0	1	0	0	57.5729	0.374241	0.374017	-0.0283988	3	9.23343e-05	13	0	7.5495	-1.06216e-05
2	0	0	1	0	0	59.3205	0.356765	0.356474	-0.0300643	3	3.42526e-05	13	0	9.2971	-1.07171e-05
2	1	0	1	0	1	61.0357	0.36041	0.360167	0.033745	4	3.936e-05	13	0	0.9436	1.21538e-05
2	1	0	1	0	1	62.7833	0.377886	0.377644	0.0361138	4	9.34535e-05	13	0	2.6912	1.36382e-05
2	1	0	1	0	1	64.5309	0.395362	0.395076	0.0313451	4	0.000145165	13	0	4.4388	1.23837e-05
2	1	0	1	0	1	66.2785	0.412837	0.41262	0.0232555	4	0.000194308	13	0	6.1864	9.59569e-06
2	1	0	1	0	1	68.0261	0.430313	0.430103	0.0201931	4	0.000241066	13	0	7.934	8.6851e-06
2	1	0	1	0	1	69.7737	0.447789	0.447636	0.0220078	4	0.000285917	13	0	9.6816	9.85149e-06
2	0	0	1	0	1	71.468	0.435257	0.43498	-0.029419	4	0.000260343	13	0	1.448	-1.27967e-05
2	0	0	1	0	1	73.2156	0.41778	0.417531	-0.0296312	4	0.000217236	13	0	3.1956	-1.23719e-05
2	0	0	1	0	1	74.9632	0.400304	0.400042	-0.0280996	4	0.000170346	13	0	4.9432	-1.1241e-05
2	0	0	1	0	1	76.7107	0.382829	0.382582	-0.02654	4	0.000119623	13	0	6.6907	-1.01537e-05
2	0	0	1	0	1	78.4583	0.365353	0.365088	-0.0273236	4	6.41641e-05	13	0	8.4383	-9.97553e-06
2	1	0	1	0	0	80.0737	0.350823	0.350592	0.0240453	5	1.12273e-05	13	0	0.000000000000000E+000	8.43008e-06
2	1	0	1	0	0	81.8812	0.368899	0.368625	0.0347295	5	6.60197e-05	13	0	1.8075	1.28021e-05
2	1	0	1	0	0	83.6287	0.386374	0.386106	0.0274106	5	0.000119031	13	0	3.555	1.05834e-05
2	1	0	1	0	0	85.3763	0.40385	0.403638	0.0222326	5	0.000169336	13	0	5.3026	8.97391e-06
2	1	0	1	0	0	87.1239	0.421326	0.421089	0.0210786	5	0.000217259	13	0	7.0502	8.87595e-06
2	1	0	1	0	0	88.8715	0.438801	0.438596	0.023317	5	0.000262996	13	0	8.7978	1.02267e-05
2	0	0	1	0	0	90.5659	0.444244	0.44397	-0.0273602	5	0.000280726	13	0	0.4994	-1.21471e-05
2	0	0	1	0	0	92.3135	0.426768	0.426484	-0.0263792	5	0.00023979	13	0	2.247	-1.12503e-05
2	0	0	1	0	0	94.061	0.409293	0.409081	-0.0245866	5	0.00019491	13	0	3.9945	-1.00579e-05
2	0	0	1	0	0	95.8086	0.391816	0.391585	-0.0250516	5	0.000146264	13	0	5.7421	-9.80983e-06
2	0	0	1	0	0	97.5562	0.37434	0.374062	-0.0265568	5	9.34501e-05	13	0	7.4897	-9.93388e-06
2	0	0	1	0	0	99.3037	0.356865	0.356566	-0.0288887	5	3.55727e-05	13	0	9.2372	-1.03007e-05
2	1	0	1	0	1	100.979	0.35991	0.359711	0.0377565	6	3.96032e-05	13	0	0.8787	1.35814e-05
2	1	0	1	0	1	102.727	0.377386	0.377115	0.0358515	6	9.35994e-05	13	0	2.6263	1.35201e-05
2	1	0	1	0	1	104.474	0.394863	0.394584	0.0324465	6	0.000145281	13	0	4.3739	1.28029e-05
[...]
2	1	0	1	0	0	128.815	0.438302	0.438086	0.0315643	7	0.00026456	13	0	8.7328	1.38279e-05
2	0	0	1	0	0	130.569	0.444144	0.443862	-0.0163127	7	0.000283983	13	0	0.5593	-7.24057e-06
2	0	0	1	0	0	132.317	0.426669	0.426413	-0.018967	7	0.00024306	13	0	2.3068	-8.08777e-06
2	0	0	1	0	0	134.064	0.409192	0.408956	-0.0212247	7	0.000198162	13	0	4.0544	-8.67998e-06
2	0	0	1	0	0	135.812	0.391716	0.39144	-0.0234073	7	0.000149518	13	0	5.802	-9.16257e-06
2	0	0	1	0	0	137.559	0.374241	0.373954	-0.0255796	7	9.67826e-05	13	0	7.5495	-9.5656e-06
2	0	0	1	0	0	139.307	0.356765	0.356458	-0.0289044	7	3.8967e-05	13	0	9.2971	-1.03032e-05
2	1	0	1	0	1	141.022	0.36041	0.360165	0.0274644	8	4.34401e-05	13	0	0.9436	9.89173e-06
2	1	0	1	0	1	142.77	0.377886	0.377607	0.0254809	8	9.72867e-05	13	0	2.6912	9.62179e-06
2	1	0	1	0	1	144.517	0.395362	0.395077	0.0247075	8	0.000148757	13	0	4.4388	9.76135e-06
2	1	0	1	0	1	146.265	0.412837	0.412612	0.0244754	8	0.000197722	13	0	6.1864	1.00988e-05
2	1	0	1	0	1	148.012	0.430313	0.430085	0.0258152	8	0.000244436	13	0	7.934	1.11027e-05
2	1	0	1	0	1	149.76	0.447789	0.447582	0.0267058	8	0.000289389	13	0	9.6816	1.19531e-05
2	0	0	1	0	1	151.514	0.434657	0.434406	-0.0183045	8	0.000262387	13	0	1.443	-7.95157e-06
2	0	0	1	0	1	153.262	0.417181	0.416931	-0.0201596	8	0.000219181	13	0	3.1906	-8.40518e-06
2	0	0	1	0	1	155.009	0.399705	0.399407	-0.0224326	8	0.000172272	13	0	4.9382	-8.95975e-06
2	0	0	1	0	1	156.757	0.38223	0.381958	-0.0280559	8	0.000121507	13	0	6.6858	-1.07162e-05
2	0	0	1	0	1	158.505	0.364754	0.364486	-0.0318743	8	6.61734e-05	13	0	8.4334	-1.16177e-05
2	1	0	1	0	0	160.16	0.351822	0.351565	0.032904	9	1.81674e-05	13	0	0.1498	1.15679e-05
2	1	0	1	0	0	161.907	0.369298	0.369041	0.0289956	9	7.20652e-05	13	0	1.8974	1.07006e-05
2	1	0	1	0	0	163.655	0.386773	0.386505	0.0239994	9	0.000124784	13	0	3.645	9.27589e-06
2	1	0	1	0	0	165.403	0.404249	0.404023	0.0220052	9	0.000174919	13	0	5.3926	8.8906e-06
2	1	0	1	0	0	167.15	0.421725	0.421448	0.0206354	9	0.000222715	13	0	7.1402	8.69678e-06
2	1	0	1	0	0	168.898	0.4392	0.43897	0.0199099	9	0.000268461	13	0	8.8877	8.73984e-06
2	0	0	1	0	0	170.552	0.444244	0.444015	-0.0250351	9	0.000285058	13	0	0.4994	-1.11159e-05
2	0	0	1	0	0	172.3	0.426768	0.426539	-0.0295556	9	0.000244241	13	0	2.247	-1.26066e-05
2	0	0	1	0	0	174.047	0.409293	0.409065	-0.0328826	9	0.000199486	13	0	3.9945	-1.34511e-05
2	0	0	1	0	0	175.795	0.391816	0.391522	-0.0336469	9	0.00015099	13	0	5.7421	-1.31735e-05
2	0	0	1	0	0	177.543	0.37434	0.37411	-0.0322281	9	9.83767e-05	13	0	7.4897	-1.20569e-05
2	0	0	1	0	0	179.29	0.356865	0.356557	-0.0285321	9	4.06825e-05	13	0	9.2372	-1.01733e-05
2	1	0	1	0	1	180.965	0.35991	0.359686	0.034061	10	4.31098e-05	13	0	0.8937	1.22513e-05
2	1	0	1	0	1	182.713	0.377386	0.377167	0.0265769	10	9.69919e-05	13	0	2.6413	1.00239e-05
2	1	0	1	0	1	184.461	0.394863	0.394605	0.0227151	10	0.000148541	13	0	4.3889	8.96349e-06
2	1	0	1	0	1	186.208	0.412338	0.412094	0.0249448	10	0.000197581	13	0	6.1364	1.02796e-05
2	1	0	1	0	1	187.956	0.429814	0.429585	0.030244	10	0.000244259	13	0	7.884	1.29924e-05
2	1	0	1	0	1	189.703	0.44729	0.447069	0.0310108	10	0.000289132	13	0	9.6316	1.3864e-05
2	0	0	1	0	1	191.458	0.435156	0.434945	-0.026105	10	0.00026369	13	0	1.3931	-1.13542e-05
2	0	0	1	0	1	193.205	0.41768	0.417375	-0.0313654	10	0.000220734	13	0	3.1407	-1.30912e-05
2	0	0	1	0	1	194.953	0.400205	0.399895	-0.0294381	10	0.000174067	13	0	4.8882	-1.17722e-05
2	0	0	1	0	1	196.7	0.382729	0.382438	-0.0257323	10	0.000123509	13	0	6.6358	-9.84103e-06
2	0	0	1	0	1	198.448	0.365253	0.365008	-0.0271814	10	6.83637e-05	13	0	8.3834	-9.92143e-06
2	0	0	1	0	1	199.971	0.35	0.349724	-0.0309294	10	1.60285e-05	13	0	9.9063	-1.08167e-05