Folder: SI_for_publications/ACS_Catal_2026/Figures_Na_K/main_figures/data/EC/20251112_2-148_alpha_reproducibility (part 35)

File: 20251112_2-148_006_gamma_reproducibility_2_Na1_02_PEIS_C02.mpt
EC-Lab ASCII FILE
Nb header lines : 63

Potentio Electrochemical Impedance Spectroscopy

Run on channel : 2 (SN 69290)
User :
CE vs. WE compliance from -10 V to 10 V
Electrode connection : standard
Potential control : Ewe
Ewe ctrl range : min = -1.00 V, max = 1.00 V
Safety Limits :
	Do not start on E overload
Acquisition started on : 11/12/2025 19:49:32.045
Loaded Setting File :  C:\Users\User\Documents\EC-Lab\Data\Yatsuzuka\20251112_2-148_alpha_reproducibility\20251112_2-148_002_alpha_reproducibility_2_K1.mps
Saved on :
	File : 20251112_2-148_006_gamma_reproducibility_2_Na1_02_PEIS_C02.mpr
	Directory : C:\Users\User\Documents\EC-Lab\Data\Yatsuzuka\20251112_2-148_alpha_reproducibility\
	Host : 192.109.209.127
Device : SP-150e (SN .003883)
Address : 192.109.209.128
EC-Lab for windows v11.52 (software)
Internet server v11.52 (firmware)
Command interpretor v11.50 (firmware)
Electrode material :
Initial state :
Electrolyte :
Comments :
Electrode surface area : 0.001 cm2
Characteristic mass : 0.001 g
Equivalent Weight : 0.000 g/eq.
Density : 0.000 g/cm3
Volume (V) : 0.001 cm3
Cycle Definition : Charge/Discharge alternance
Mode                Single sine
E (V)               0.4500
vs.                 Ref
tE (h:m:s)          0:00:0.0000
record              0
dI                  0.000
unit dI             mA
dt (s)              0.000
fi                  500.000
unit fi             kHz
ff                  1.000
unit ff             Hz
Nd                  6
Points              per decade
spacing             Logarithmic
Va (mV)             10.0
pw                  0.10
Na                  2
corr                0
E range min (V)     -1.000
E range max (V)     1.000
I Range             Auto
Bandwidth           5
nc cycles           0
goto Ns'            0
nr cycles           0
inc. cycle          0

freq/Hz	Re(Z)/Ohm	-Im(Z)/Ohm	|Z|/Ohm	Phase(Z)/deg	time/s	<Ewe>/V	<I>/mA	Cs/uF	Cp/uF	cycle number	I Range	|Ewe|/V	|I|/A	Ns	(Q-Qo)/mA.h	Re(Y)/Ohm-1	Im(Y)/Ohm-1	|Y|/Ohm-1	Phase(Y)/deg	Re(C)/nF	Im(C)/nF	|C|/nF	Phase(C)/deg	Re(M)	Im(M)	|M|	Phase(M)/deg	Re(Permittivity)	Im(Permittivity)	|Permittivity|	Phase(Permittivity)/deg	Re(Resistivity)/Ohm.cm	Im(Resistivity)/Ohm.cm	|Resistivity|/Ohm.cm	Phase(Resistivity)/deg	Re(Conductivity)/mS/cm	Im(Conductivity)/mS/cm	|Conductivity|/mS/cm	Phase(Conductivity)/deg	Tan(Delta)	Loss Angle(Delta)/deg	dq/mA.h
500019	19.6193	-2.17117	19.7391	6.31495	201.934	0.449788	0.0192217	-0.146602	-0.00177368	1	10	0.00611065	0.000309572	0	3.01714e-05	0.0503536	-0.00557239	0.050661	-6.31495	-1.77368	16.0275	16.1253	-96.3149	0.0000000E+000	0.0000000E+000	0.0000000E+000	96.3149	0.0000000E+000	0.0000000E+000	0.0000000E+000	-96.3149	0.0000000E+000	0.0000000E+000	0.0000000E+000	6.31495	0.0000000E+000	0.0000000E+000	0.0000000E+000	-6.31495	9.03627	83.6851	3.01714e-05
231063	11.952	-0.898603	11.9857	4.29966	202.642	0.449551	0.0191882	-0.766519	-0.00430854	1	10	0.0106683	0.000890082	0	3.51875e-05	0.0831978	-0.00625518	0.0834326	-4.29966	-4.30854	57.3063	57.4681	-94.2997	0.0000000E+000	0.0000000E+000	0.0000000E+000	94.2997	0.0000000E+000	0.0000000E+000	0.0000000E+000	-94.2997	0.0000000E+000	0.0000000E+000	0.0000000E+000	4.29966	0.0000000E+000	0.0000000E+000	0.0000000E+000	-4.29966	13.3006	85.7003	3.13721e-06
106786	10.9461	-0.12814	10.9469	0.670699	203.622	0.44954	0.0193262	-11.631	-0.00159371	1	10	0.0108215	0.000988544	0	3.85699e-05	0.0913439	-0.00106931	0.0913502	-0.670699	-1.59371	136.14	136.149	-90.6707	0.0000000E+000	0.0000000E+000	0.0000000E+000	90.6707	0.0000000E+000	0.0000000E+000	0.0000000E+000	-90.6707	0.0000000E+000	0.0000000E+000	0.0000000E+000	0.670699	0.0000000E+000	0.0000000E+000	0.0000000E+000	-0.670699	85.4231	89.3293	6.65004e-07
49352.4	10.9011	0.0673742	10.9014	-0.354111	204.467	0.449553	0.01919	47.865	0.00182829	1	10	0.0106231	0.000974477	0	4.08119e-05	0.09173	0.000566935	0.0917317	0.354111	1.82829	295.817	295.823	-89.6459	0.0000000E+000	0.0000000E+000	0.0000000E+000	89.6459	0.0000000E+000	0.0000000E+000	0.0000000E+000	-89.6459	0.0000000E+000	0.0000000E+000	0.0000000E+000	-0.354111	0.0000000E+000	0.0000000E+000	0.0000000E+000	0.354111	161.8	89.6459	4.60036e-07
22806.6	10.9369	0.137707	10.9378	-0.721379	205.312	0.449551	0.0195238	50.676	0.00803269	1	10	0.0104592	0.000956249	0	4.40095e-05	0.0914192	0.00115107	0.0914264	0.721379	8.03273	637.966	638.017	-89.2786	0.0000000E+000	0.0000000E+000	0.0000000E+000	89.2786	0.0000000E+000	0.0000000E+000	0.0000000E+000	-89.2786	0.0000000E+000	0.0000000E+000	0.0000000E+000	-0.721379	0.0000000E+000	0.0000000E+000	0.0000000E+000	0.721379	79.4212	89.2786	2.41653e-06
10540.4	10.9988	0.191617	11.0004	-0.998086	206.156	0.449546	0.018888	78.8007	0.0239099	1	10	0.0102459	0.000931409	0	4.87631e-05	0.0908916	0.00158348	0.0909054	0.998086	23.9098	1372.42	1372.63	-89.0019	0.0000000E+000	0.0000000E+000	0.0000000E+000	89.0019	0.0000000E+000	0.0000000E+000	0.0000000E+000	-89.0019	0.0000000E+000	0.0000000E+000	0.0000000E+000	-0.998086	0.0000000E+000	0.0000000E+000	0.0000000E+000	0.998086	57.3998	89.0019	1.58529e-06
4871.56	11.0467	0.300735	11.0508	-1.55943	207.148	0.449557	0.0191546	108.634	0.0804542	1	10	0.0107519	0.000972952	0	5.3997e-05	0.0904576	0.00246262	0.0904911	1.55943	80.4542	2955.27	2956.37	-88.4406	0.0000000E+000	0.0000000E+000	0.0000000E+000	88.4406	0.0000000E+000	0.0000000E+000	0.0000000E+000	-88.4406	0.0000000E+000	0.0000000E+000	0.0000000E+000	-1.55943	0.0000000E+000	0.0000000E+000	0.0000000E+000	1.55943	36.7323	88.4406	2.66405e-06
2250.72	11.1171	0.538284	11.1302	-2.77206	208.3	0.449549	0.0190073	131.367	0.307261	1	10	0.010238	0.000919842	0	5.98651e-05	0.0897408	0.00434519	0.0898459	2.77206	307.261	6345.83	6353.27	-87.2279	0.0000000E+000	0.0000000E+000	0.0000000E+000	87.2279	0.0000000E+000	0.0000000E+000	0.0000000E+000	-87.2279	0.0000000E+000	0.0000000E+000	0.0000000E+000	-2.77206	0.0000000E+000	0.0000000E+000	0.0000000E+000	2.77206	20.6529	87.2279	2.19068e-06
1040.33	11.2166	0.983163	11.2596	-5.00931	209.23	0.449562	0.0192851	155.605	1.18638	1	10	0.010329	0.000917347	0	6.42423e-05	0.0884737	0.00775492	0.0888129	5.00931	1186.38	13535.1	13587	-84.9907	0.0000000E+000	0.0000000E+000	0.0000000E+000	84.9907	0.0000000E+000	0.0000000E+000	0.0000000E+000	-84.9907	0.0000000E+000	0.0000000E+000	0.0000000E+000	-5.00931	0.0000000E+000	0.0000000E+000	0.0000000E+000	5.00931	11.4087	84.9907	2.58324e-06
480.769	11.3586	1.92465	11.5205	-9.61712	210.16	0.44955	0.0183025	172.001	4.80059	1	10	0.0103481	0.000898235	0	6.83595e-05	0.0855821	0.0145014	0.086802	9.61712	4800.59	28331.3	28735.1	-80.3829	0.0000000E+000	0.0000000E+000	0.0000000E+000	80.3829	0.0000000E+000	0.0000000E+000	0.0000000E+000	-80.3829	0.0000000E+000	0.0000000E+000	0.0000000E+000	-9.61712	0.0000000E+000	0.0000000E+000	0.0000000E+000	9.61712	5.90163	80.3829	2.15076e-06
222.061	11.5559	3.82216	12.1716	-18.3018	211.085	0.449552	0.0183958	187.517	18.4909	1	10	0.0103523	0.000850528	0	7.33119e-05	0.0780023	0.0257994	0.0821582	18.3018	18490.9	55905.6	58884.3	-71.6982	0.0000000E+000	0.0000000E+000	0.0000000E+000	71.6982	0.0000000E+000	0.0000000E+000	0.0000000E+000	-71.6982	0.0000000E+000	0.0000000E+000	0.0000000E+000	-18.3018	0.0000000E+000	0.0000000E+000	0.0000000E+000	18.3018	3.02341	71.6982	3.11928e-06
102.667	11.8589	7.87354	14.2347	-33.5816	212.022	0.44956	0.0186325	196.887	60.2368	1	10	0.0103489	0.000727022	0	7.69167e-05	0.058526	0.0388574	0.0702509	33.5816	60236.8	90727	108903	-56.4184	0.0000000E+000	0.0000000E+000	0.0000000E+000	56.4184	0.0000000E+000	0.0000000E+000	0.0000000E+000	-56.4184	0.0000000E+000	0.0000000E+000	0.0000000E+000	-33.5816	0.0000000E+000	0.0000000E+000	0.0000000E+000	33.5816	1.50617	56.4184	1.68211e-06
47.4443	12.3919	16.4063	20.5602	-52.9358	213.177	0.449552	0.000847898	204.468	130.193	1	11	0.0103653	0.000504144	0	8.01798e-05	0.0293143	0.0388108	0.0486376	52.9358	130193	98336.8	163158	-37.0642	0.0000000E+000	0.0000000E+000	0.0000000E+000	37.0642	0.0000000E+000	0.0000000E+000	0.0000000E+000	-37.0642	0.0000000E+000	0.0000000E+000	0.0000000E+000	-52.9358	0.0000000E+000	0.0000000E+000	0.0000000E+000	52.9358	0.755313	37.0642	1.37823e-06
21.9144	13.5003	34.4423	36.9936	-68.5965	214.045	0.449549	0.000628666	210.862	182.78	1	11	0.0103426	0.000279578	0	8.05513e-05	0.00986478	0.0251674	0.0270317	68.5965	182780	71643.6	196319	-21.4035	0.0000000E+000	0.0000000E+000	0.0000000E+000	21.4035	0.0000000E+000	0.0000000E+000	0.0000000E+000	-21.4035	0.0000000E+000	0.0000000E+000	0.0000000E+000	-68.5965	0.0000000E+000	0.0000000E+000	0.0000000E+000	68.5965	0.391967	21.4035	5.114e-07
10.1329	16.4854	72.5698	74.4187	-77.2015	214.973	0.449556	0.000960948	216.436	205.815	1	11	0.010334	0.000138862	0	8.14567e-05	0.00297671	0.0131036	0.0134375	77.2015	205815	46754.2	211058	-12.7985	0.0000000E+000	0.0000000E+000	0.0000000E+000	12.7985	0.0000000E+000	0.0000000E+000	0.0000000E+000	-12.7985	0.0000000E+000	0.0000000E+000	0.0000000E+000	-77.2015	0.0000000E+000	0.0000000E+000	0.0000000E+000	77.2015	0.227167	12.7985	4.74363e-07
4.68375	20.9015	151.995	153.425	-82.1701	216.023	0.44957	0.000359325	223.562	219.413	1	12	0.010334	6.73555e-05	0	8.20943e-05	0.000887944	0.00645708	0.00651784	82.1701	219413	30172.5	221478	-7.82991	0.0000000E+000	0.0000000E+000	0.0000000E+000	7.82991	0.0000000E+000	0.0000000E+000	0.0000000E+000	-7.82991	0.0000000E+000	0.0000000E+000	0.0000000E+000	-82.1701	0.0000000E+000	0.0000000E+000	0.0000000E+000	82.1701	0.137515	7.82991	5.42998e-07
2.16533	31.0567	318.451	319.961	-84.4299	217.739	0.449572	0.00023695	230.81	228.635	1	12	0.0103309	3.22881e-05	0	8.11022e-05	0.000303362	0.00311062	0.00312538	84.4299	228635	22297.6	229720	-5.57013	0.0000000E+000	0.0000000E+000	0.0000000E+000	5.57013	0.0000000E+000	0.0000000E+000	0.0000000E+000	-5.57013	0.0000000E+000	0.0000000E+000	0.0000000E+000	-84.4299	0.0000000E+000	0.0000000E+000	0.0000000E+000	84.4299	0.0975245	5.57013	-2.29708e-07
1.00006	51.6433	670.749	672.735	-85.5973	222.079	0.449573	0.000106762	237.264	235.866	1	13	0.0103329	1.53595e-05	0	8.22553e-05	0.000114111	0.00148208	0.00148647	85.5973	235866	18160.1	236564	-4.40271	0.0000000E+000	0.0000000E+000	0.0000000E+000	4.40271	0.0000000E+000	0.0000000E+000	0.0000000E+000	-4.40271	0.0000000E+000	0.0000000E+000	0.0000000E+000	-85.5973	0.0000000E+000	0.0000000E+000	0.0000000E+000	85.5973	0.0769934	4.40271	5.20311e-07

File: 20251112_2-148_006_gamma_reproducibility_2_Na1_03_CVA_C02.mpt
EC-Lab ASCII FILE
Nb header lines : 66

Cyclic Voltammetry Advanced

Run on channel : 2 (SN 69290)
User :
CE vs. WE compliance from -10 V to 10 V
Electrode connection : standard
Potential control : Ewe
Ewe ctrl range : min = -1.00 V, max = 1.00 V
Safety Limits :
	Do not start on E overload
Acquisition started on : 11/12/2025 19:49:32.045
Loaded Setting File :  C:\Users\User\Documents\EC-Lab\Data\Yatsuzuka\20251112_2-148_alpha_reproducibility\20251112_2-148_002_alpha_reproducibility_2_K1.mps
Saved on :
	File : 20251112_2-148_006_gamma_reproducibility_2_Na1_03_CVA_C02.mpr
	Directory : C:\Users\User\Documents\EC-Lab\Data\Yatsuzuka\20251112_2-148_alpha_reproducibility\
	Host : 192.109.209.127
Device : SP-150e (SN .003883)
Address : 192.109.209.128
EC-Lab for windows v11.52 (software)
Internet server v11.52 (firmware)
Command interpretor v11.50 (firmware)
Electrode material :
Initial state :
Electrolyte :
Comments :
Electrode surface area : 0.001 cm2
Characteristic mass : 0.001 g
Equivalent Weight : 0.000 g/eq.
Density : 0.000 g/cm3
Volume (V) : 0.001 cm3
Cycle Definition : Charge/Discharge alternance
Ei (V)              0.450
vs.                 Ref
ti (h:m:s)          0:00:10.0000
dti (s)             0.0000
dE/dt               5.000
dE/dt unit          mV/s
E1 (V)              0.700
vs.                 Ref
t1 (h:m:s)          0:00:0.0000
dt1 (s)             0.1000
Step percent        50
N                   10
E range min (V)     -1.000
E range max (V)     1.000
I Range             10 mA
I Range min         Unset
I Range max         Unset
I Range init        Unset
Bandwidth           5
E2 (V)              0.450
vs.                 Ref
t2 (h:m:s)          0:00:0.0000
dt2 (s)             0.1000
nc cycles           14
nr                  1
Reverse Scan        0
Ef (V)              0.000
vs.                 Eoc
tf (h:m:s)          0:00:0.0000
dtf (s)             0.1000

mode	ox/red	error	control changes	Ns changes	counter inc.	time/s	control/V	Ewe/V	<I>/mA	cycle number	(Q-Qo)/C	I Range	Ns	step time/s	P/W
2	1	0	1	0	0	232.209	0.450021	0.449649	0.00181615	1	0.0000000E+000	11	0	0.000000000000000E+000	8.16631e-07
2	1	0	0	0	0	245.249	0.515218	0.514792	0.0032411	1	4.27172e-05	11	0	12.9846	1.66849e-06
2	1	0	1	0	0	258.333	0.58064	0.580186	0.00401325	1	8.99603e-05	11	0	26.0691	2.32843e-06
2	1	0	1	0	0	271.418	0.646063	0.645636	0.014054	1	0.000182299	11	0	39.1536	9.07375e-06
2	1	0	1	0	0	284.253	0.689761	0.689282	0.0797442	1	0.000923506	11	0	51.9887	5.49662e-05
2	1	0	1	0	0	297.338	0.624339	0.62391	0.00381284	1	0.0012558	11	0	65.0732	2.37887e-06
2	1	0	1	0	0	310.422	0.558916	0.558494	0.000634457	1	0.00127498	11	0	78.1577	3.5434e-07
2	0	0	0	0	0	323.507	0.493494	0.493026	0.000213136	1	0.00127836	11	0	0.000000000000000E+000	1.05082e-07
2	0	0	1	0	1	336.361	0.470821	0.470383	0.00284161	2	0.00128962	11	0	4.1602	1.33665e-06
2	1	0	1	0	1	349.445	0.536243	0.535805	0.00279635	2	0.00132731	11	0	17.2446	1.4983e-06
2	1	0	1	0	1	362.529	0.601665	0.601226	0.0038848	2	0.00136968	11	0	30.3291	2.33564e-06
2	1	0	0	0	1	375.614	0.667088	0.666647	0.0275779	2	0.00150535	11	0	43.4136	1.83847e-05
2	1	0	0	0	1	388.439	0.668786	0.668353	0.0277758	2	0.00228426	11	0	56.2388	1.85641e-05
2	1	0	1	0	1	401.524	0.603363	0.602877	0.00154678	2	0.00239298	11	0	69.3233	9.32518e-07
2	1	0	1	0	1	414.608	0.537942	0.537506	0.000350806	2	0.00240145	11	0	82.4077	1.8856e-07
2	0	0	1	0	1	427.693	0.472519	0.472073	8.53215e-05	2	0.00240256	11	0	0.2996	4.0278e-08
2	1	0	0	0	0	440.547	0.491796	0.491326	0.00272403	3	0.00242532	11	0	8.3452	1.33839e-06
2	1	0	1	0	0	453.631	0.557219	0.556779	0.00287555	3	0.00246273	11	0	21.4297	1.60105e-06
2	1	0	1	0	0	466.716	0.622641	0.622195	0.00546538	3	0.00251099	11	0	34.5142	3.40053e-06
2	1	0	1	0	0	479.8	0.688064	0.687636	0.0646341	3	0.00279882	11	0	47.5987	4.44448e-05
2	1	0	1	0	0	492.625	0.647811	0.647366	0.00901946	3	0.00341985	11	0	60.4238	5.83889e-06
2	1	0	1	0	0	505.71	0.582388	0.581951	0.00091668	3	0.00345836	11	0	73.5083	5.33462e-07
2	0	0	0	0	0	518.794	0.516966	0.516515	0.000234917	3	0.00346301	11	0	0.000000000000000E+000	1.21338e-07
2	1	0	1	0	0	531.879	0.451543	0.451118	-7.81561e-05	3	0.00346282	11	0	0.000000000000000E+000	-3.52576e-08
2	1	0	1	0	1	544.733	0.512771	0.512298	0.0026837	4	0.00349721	11	0	12.5402	1.37486e-06
2	1	0	1	0	1	557.817	0.578193	0.577736	0.00306165	4	0.00353456	11	0	25.6247	1.76882e-06
2	1	0	0	0	1	570.902	0.643616	0.643156	0.00955081	4	0.00359873	11	0	38.7092	6.14266e-06
2	1	0	1	0	1	583.727	0.692258	0.691797	0.0721748	4	0.00416455	11	0	51.5343	4.99303e-05
2	1	0	0	0	1	596.811	0.626836	0.626365	0.00352174	4	0.00446315	11	0	64.6188	2.2059e-06
2	1	0	1	0	1	609.896	0.561413	0.560896	0.000529691	4	0.00447963	11	0	77.7033	2.97101e-07
2	1	0	1	0	1	622.98	0.495991	0.495588	0.000157875	4	0.00448187	11	0	0.3995	7.82409e-08
2	0	0	1	0	0	635.834	0.468323	0.46789	0.00264533	5	0.00449098	11	0	3.6507	1.23773e-06
2	1	0	0	0	0	648.919	0.533746	0.533324	0.00270909	5	0.00452709	11	0	16.7352	1.44482e-06
2	0	0	1	0	0	662.003	0.599168	0.598746	0.00347207	5	0.00456646	11	0	29.8197	2.07889e-06
2	1	0	1	0	0	675.088	0.664591	0.66415	0.0213052	5	0.0046758	11	0	42.9042	1.41498e-05
2	1	0	1	0	0	687.913	0.671284	0.670855	0.0271466	5	0.00535478	11	0	55.7293	1.82114e-05
2	1	0	1	0	0	700.997	0.605861	0.605416	0.00155278	5	0.00546114	11	0	68.8138	9.40075e-07
2	1	0	1	0	0	714.082	0.540439	0.539965	0.000380862	5	0.00546997	11	0	81.8983	2.05652e-07
2	1	0	0	0	0	727.166	0.475016	0.474604	6.77351e-05	5	0.00547151	11	0	0.000000000000000E+000	3.21473e-08
2	1	0	1	0	1	740.02	0.489299	0.488856	0.002684	6	0.00549232	11	0	7.8458	1.31209e-06
2	1	0	1	0	1	753.105	0.554722	0.55425	0.00272708	6	0.00552892	11	0	20.9303	1.51149e-06
2	1	0	0	0	1	766.189	0.620144	0.619719	0.00470114	6	0.00557352	11	0	34.0148	2.91339e-06
2	1	0	1	0	1	779.274	0.685567	0.685183	0.0521308	6	0.00580685	11	0	47.0993	3.57191e-05
2	1	0	0	0	1	792.099	0.650308	0.649861	0.00923499	6	0.00639007	11	0	59.9244	6.00145e-06
2	1	0	1	0	1	805.183	0.584885	0.584433	0.000874458	6	0.00642885	11	0	73.0089	5.11062e-07
2	1	0	1	0	1	818.268	0.519463	0.519035	0.000273107	6	0.00643349	11	0	86.0934	1.41752e-07
2	0	0	1	0	1	831.352	0.45404	0.453648	-2.16683e-05	6	0.00643359	11	0	0.3996	-9.82978e-09
2	1	0	0	0	0	844.206	0.510274	0.509819	0.00263514	7	0.00646626	11	0	12.0798	1.34344e-06
2	1	0	1	0	0	857.291	0.575696	0.575216	0.0028561	7	0.00650285	11	0	25.1643	1.64288e-06
2	1	0	1	0	0	870.375	0.641119	0.6407	0.00808988	7	0.00656062	11	0	38.2488	5.18319e-06
2	1	0	1	0	0	883.2	0.694755	0.694302	0.0734015	7	0.00704968	11	0	51.0739	5.09628e-05
2	1	0	1	0	0	896.285	0.629333	0.628856	0.00352388	7	0.00735492	11	0	64.1584	2.21601e-06
2	0	0	1	0	0	909.369	0.56391	0.563509	0.000542244	7	0.00737166	11	0	77.2429	3.05559e-07
2	1	0	0	0	0	922.454	0.498488	0.498025	0.00011321	7	0.00737408	11	0	0.000000000000000E+000	5.63812e-08
2	1	0	1	0	1	935.308	0.465826	0.465416	0.00257405	8	0.0073815	11	0	3.1613	1.19801e-06
2	1	0	1	0	1	948.392	0.531249	0.530821	0.00266354	8	0.00741718	11	0	16.2458	1.41386e-06
2	1	0	1	0	1	961.477	0.596671	0.5962	0.00327247	8	0.00745534	11	0	29.3303	1.95105e-06
2	1	0	0	0	1	974.561	0.662094	0.661671	0.0177766	8	0.00755005	11	0	42.4148	1.17622e-05
2	1	0	1	0	1	987.386	0.673781	0.673342	0.0281881	8	0.00817694	11	0	55.2399	1.89802e-05
2	1	0	0	0	1	1000.47	0.608358	0.607902	0.00159405	8	0.00828715	11	0	68.3244	9.69025e-07
[...]
2	1	0	1	0	1	1208.84	0.566407	0.565947	0.000594454	10	0.0101013	11	0	76.7045	3.36429e-07
2	1	0	1	0	1	1221.93	0.500985	0.500568	0.000150149	10	0.0101045	11	0	0.0999	7.51596e-08
2	1	0	1	0	0	1234.78	0.463329	0.462897	0.00260557	11	0.0101113	11	0	2.6619	1.20611e-06
2	1	0	0	0	0	1247.87	0.528752	0.528309	0.00252447	11	0.0101472	11	0	15.7464	1.3337e-06
2	1	0	1	0	0	1260.95	0.594174	0.5937	0.00314419	11	0.0101848	11	0	28.8309	1.86671e-06
2	1	0	1	0	0	1274.03	0.659597	0.659178	0.0151716	11	0.0102695	11	0	41.9154	1.00008e-05
2	1	0	1	0	0	1286.86	0.676278	0.675873	0.0303763	11	0.0108623	11	0	54.7405	2.05305e-05
2	1	0	1	0	0	1299.94	0.610855	0.610436	0.00170997	11	0.0109809	11	0	67.825	1.04383e-06
2	1	0	1	0	0	1313.03	0.545432	0.544986	0.000445769	11	0.0109898	11	0	80.9095	2.42938e-07
2	0	0	0	0	0	1326.11	0.48001	0.47956	0.000121304	11	0.0109911	11	0	0.2996	5.81725e-08
2	1	0	1	0	1	1338.97	0.484305	0.483845	0.00257149	12	0.0110088	11	0	6.847	1.2442e-06
2	1	0	1	0	1	1352.05	0.549728	0.549277	0.00259098	12	0.0110439	11	0	19.9315	1.42317e-06
2	1	0	1	0	1	1365.14	0.615149	0.614724	0.00401392	12	0.0110848	11	0	33.0159	2.46745e-06
2	1	0	0	0	1	1378.22	0.680572	0.680121	0.0378626	12	0.0112572	11	0	46.1004	2.57512e-05
2	1	0	0	0	1	1391.05	0.655302	0.65485	0.010581	12	0.0118186	11	0	58.9256	6.92895e-06
2	1	0	1	0	1	1404.13	0.589879	0.589411	0.000883178	12	0.0118618	11	0	72.0101	5.20555e-07
2	1	0	1	0	1	1417.21	0.524458	0.524007	0.000278979	12	0.0118667	11	0	1.4982	1.46187e-07
2	1	0	1	0	1	1430.3	0.459035	0.458559	-5.84277e-05	12	0.0118672	11	0	0.2996	-2.67925e-08
2	1	0	0	0	0	1443.15	0.50528	0.504852	0.00267583	13	0.0118964	11	0	11.052	1.3509e-06
2	1	0	1	0	0	1456.24	0.570703	0.570232	0.00277883	13	0.0119324	11	0	24.1365	1.58458e-06
2	1	0	1	0	0	1469.32	0.636125	0.635689	0.00634904	13	0.0119833	11	0	37.221	4.03602e-06
2	1	0	1	0	0	1482.15	0.699749	0.69927	0.0830782	13	0.0123656	11	0	50.0461	5.80941e-05
2	1	0	1	0	0	1495.23	0.634327	0.633892	0.00394522	13	0.0127167	11	0	63.1306	2.50084e-06
2	0	0	1	0	0	1508.32	0.568904	0.568487	0.000587262	13	0.0127353	11	0	76.2151	3.33851e-07
2	1	0	0	0	0	1521.4	0.503482	0.503032	0.000215196	13	0.0127388	11	0	0.4994	1.08251e-07
2	0	0	1	0	1	1534.25	0.460832	0.46036	0.00255777	14	0.0127444	11	0	2.1525	1.1775e-06
2	1	0	1	0	1	1547.34	0.526255	0.52583	0.00261755	14	0.0127803	11	0	15.237	1.37639e-06
2	1	0	1	0	1	1560.42	0.591677	0.591204	0.00301493	14	0.012818	11	0	28.3215	1.78244e-06
2	1	0	0	0	1	1573.51	0.6571	0.656718	0.0132604	14	0.0128956	11	0	41.406	8.70837e-06
2	1	0	1	0	1	1586.33	0.678774	0.678324	0.0332182	14	0.0134635	11	0	54.2311	2.25327e-05
2	1	0	0	0	1	1599.42	0.613352	0.612915	0.00172197	14	0.0135929	11	0	67.3156	1.05542e-06
2	0	0	1	0	1	1612.5	0.547929	0.547513	0.000538905	14	0.0136028	11	0	80.4001	2.95057e-07
2	0	0	1	0	1	1625.59	0.482507	0.482068	0.000266631	14	0.0136055	11	0	0.0999	1.28534e-07
2	1	0	1	0	0	1638.44	0.481807	0.481361	0.00272707	15	0.0136226	11	0	6.3865	1.31271e-06
2	1	0	0	0	0	1651.53	0.54723	0.546803	0.00271704	15	0.0136588	11	0	19.471	1.48569e-06
2	1	0	1	0	0	1664.61	0.612652	0.61218	0.00393329	15	0.0137	11	0	32.5555	2.40788e-06
2	1	0	1	0	0	1677.69	0.678075	0.677672	0.0327899	15	0.0138527	11	0	45.64	2.22208e-05
2	1	0	1	0	0	1690.52	0.6578	0.657406	0.0116701	15	0.0144114	11	0	58.4651	7.67198e-06
2	1	0	1	0	0	1703.6	0.592377	0.591947	0.000978036	15	0.0144595	11	0	71.5496	5.78946e-07
2	0	0	1	0	0	1716.69	0.526955	0.526507	0.000330567	15	0.0144659	11	0	84.6341	1.74046e-07
2	1	0	0	0	0	1729.77	0.461532	0.461096	0.000121966	15	0.0144674	11	0	0.1997	5.62381e-08
2	1	0	0	0	0	1732.07	0.450021	0.449649	0.00113604	15	0.0144674	11	0	0.029	5.10817e-07