Folder: SI_for_publications/ACS_Catal_2026/Figures_Na_K/main_figures/data/EC/20251112_2-148_alpha_reproducibility (part 18)

File: 20251112_2-148_003_alpha_Na_first_1_Na2_02_PEIS_C01.mpt
EC-Lab ASCII FILE
Nb header lines : 63

Potentio Electrochemical Impedance Spectroscopy

Run on channel : 1 (SN 69187)
User :
CE vs. WE compliance from -10 V to 10 V
Electrode connection : standard
Potential control : Ewe
Ewe ctrl range : min = -1.00 V, max = 1.00 V
Safety Limits :
	Do not start on E overload
Acquisition started on : 11/12/2025 17:08:42.026
Loaded Setting File :  C:\Users\User\Documents\EC-Lab\Data\Yatsuzuka\20251030_2-147_gamma_reproducibility\20251030_2-147_001_gamma1_K_1.mps
Saved on :
	File : 20251112_2-148_003_alpha_Na_first_1_Na2_02_PEIS_C01.mpr
	Directory : C:\Users\User\Documents\EC-Lab\Data\Yatsuzuka\20251112_2-148_alpha_reproducibility\
	Host : 192.109.209.127
Device : SP-150e (SN .003883)
Address : 192.109.209.128
EC-Lab for windows v11.52 (software)
Internet server v11.52 (firmware)
Command interpretor v11.50 (firmware)
Electrode material :
Initial state :
Electrolyte :
Comments :
Electrode surface area : 0.001 cm2
Characteristic mass : 0.001 g
Equivalent Weight : 0.000 g/eq.
Density : 0.000 g/cm3
Volume (V) : 0.001 cm3
Cycle Definition : Charge/Discharge alternance
Mode                Single sine
E (V)               0.4500
vs.                 Ref
tE (h:m:s)          0:00:0.0000
record              0
dI                  0.000
unit dI             mA
dt (s)              0.000
fi                  500.000
unit fi             kHz
ff                  1.000
unit ff             Hz
Nd                  6
Points              per decade
spacing             Logarithmic
Va (mV)             10.0
pw                  0.10
Na                  2
corr                0
E range min (V)     -1.000
E range max (V)     1.000
I Range             Auto
Bandwidth           5
nc cycles           0
goto Ns'            0
nr cycles           0
inc. cycle          0

freq/Hz	Re(Z)/Ohm	-Im(Z)/Ohm	|Z|/Ohm	Phase(Z)/deg	time/s	<Ewe>/V	<I>/mA	Cs/uF	Cp/uF	cycle number	I Range	|Ewe|/V	|I|/A	Ns	(Q-Qo)/mA.h	Re(Y)/Ohm-1	Im(Y)/Ohm-1	|Y|/Ohm-1	Phase(Y)/deg	Re(C)/nF	Im(C)/nF	|C|/nF	Phase(C)/deg	Re(M)	Im(M)	|M|	Phase(M)/deg	Re(Permittivity)	Im(Permittivity)	|Permittivity|	Phase(Permittivity)/deg	Re(Resistivity)/Ohm.cm	Im(Resistivity)/Ohm.cm	|Resistivity|/Ohm.cm	Phase(Resistivity)/deg	Re(Conductivity)/mS/cm	Im(Conductivity)/mS/cm	|Conductivity|/mS/cm	Phase(Conductivity)/deg	Tan(Delta)	Loss Angle(Delta)/deg	dq/mA.h
500019	17.9272	-2.76401	18.139	8.76481	201.599	0.450131	0.0135076	-0.115158	-0.0026739	1	10	0.00574493	0.000316716	0	2.16e-05	0.0544859	-0.00840061	0.0551297	-8.76481	-2.6739	17.3428	17.5477	-98.7648	0.0000000E+000	0.0000000E+000	0.0000000E+000	98.7648	0.0000000E+000	0.0000000E+000	0.0000000E+000	-98.7648	0.0000000E+000	0.0000000E+000	0.0000000E+000	8.76481	0.0000000E+000	0.0000000E+000	0.0000000E+000	-8.76481	6.48595	81.2352	2.16e-05
231063	10.9099	-1.08267	10.9635	5.66734	202.307	0.449806	0.0150431	-0.636201	-0.00620428	1	10	0.0105326	0.000960697	0	2.49717e-05	0.0907662	-0.00900743	0.0912121	-5.66734	-6.20428	62.5194	62.8265	-95.6673	0.0000000E+000	0.0000000E+000	0.0000000E+000	95.6673	0.0000000E+000	0.0000000E+000	0.0000000E+000	-95.6673	0.0000000E+000	0.0000000E+000	0.0000000E+000	5.66734	0.0000000E+000	0.0000000E+000	0.0000000E+000	-5.66734	10.0768	84.3327	2.66558e-06
106786	9.98248	-0.295343	9.98684	1.69467	203.287	0.449768	0.0109361	-5.04636	-0.00441341	1	10	0.0107675	0.00107817	0	2.72895e-05	0.100088	-0.00296121	0.100132	-1.69467	-4.41341	149.172	149.237	-91.6947	0.0000000E+000	0.0000000E+000	0.0000000E+000	91.6947	0.0000000E+000	0.0000000E+000	0.0000000E+000	-91.6947	0.0000000E+000	0.0000000E+000	0.0000000E+000	1.69467	0.0000000E+000	0.0000000E+000	0.0000000E+000	-1.69467	33.7996	88.3053	2.32833e-06
49352.4	9.88763	-0.0876008	9.88802	0.507606	204.131	0.44976	0.0127101	-36.8133	-0.00288936	1	10	0.0105842	0.00107041	0	2.93933e-05	0.101128	-0.000895961	0.101132	-0.507606	-2.88936	326.126	326.139	-90.5076	0.0000000E+000	0.0000000E+000	0.0000000E+000	90.5076	0.0000000E+000	0.0000000E+000	0.0000000E+000	-90.5076	0.0000000E+000	0.0000000E+000	0.0000000E+000	0.507606	0.0000000E+000	0.0000000E+000	0.0000000E+000	-0.507606	112.872	89.4924	2.27784e-06
22806.6	9.86559	-0.0201529	9.86561	0.11704	204.975	0.449766	0.0151474	-346.277	-0.00144494	1	10	0.010455	0.00105974	0	3.11585e-05	0.101362	-0.000207056	0.101362	-0.11704	-1.44496	707.352	707.353	-90.117	0.0000000E+000	0.0000000E+000	0.0000000E+000	90.117	0.0000000E+000	0.0000000E+000	0.0000000E+000	-90.117	0.0000000E+000	0.0000000E+000	0.0000000E+000	0.11704	0.0000000E+000	0.0000000E+000	0.0000000E+000	-0.11704	489.538	89.883	7.26969e-07
10540.4	9.86768	0.00424181	9.86768	-0.0246297	205.819	0.449762	0.0130939	3559.7	0.000657786	1	10	0.0102862	0.00104242	0	3.22012e-05	0.101341	4.35633e-05	0.101341	0.0246297	0.657733	1530.2	1530.2	-89.9754	0.0000000E+000	0.0000000E+000	0.0000000E+000	89.9754	0.0000000E+000	0.0000000E+000	0.0000000E+000	-89.9754	0.0000000E+000	0.0000000E+000	0.0000000E+000	-0.0246297	0.0000000E+000	0.0000000E+000	0.0000000E+000	0.0246297	2326.29	89.9754	1.23963e-06
4871.56	9.87883	0.0286058	9.87887	-0.165909	206.811	0.449764	0.0123709	1142.09	0.00957614	1	10	0.0108391	0.0010972	0	3.3074e-05	0.101226	0.000293115	0.101226	0.165909	9.57615	3307.07	3307.08	-89.8341	0.0000000E+000	0.0000000E+000	0.0000000E+000	89.8341	0.0000000E+000	0.0000000E+000	0.0000000E+000	-89.8341	0.0000000E+000	0.0000000E+000	0.0000000E+000	-0.165909	0.0000000E+000	0.0000000E+000	0.0000000E+000	0.165909	345.344	89.8341	1.1341e-06
2250.72	9.88152	0.0565941	9.88169	-0.328144	207.963	0.449764	0.0125088	1249.47	0.0409834	1	10	0.0103406	0.00104644	0	3.53269e-05	0.101196	0.000579574	0.101197	0.328144	40.9838	7155.84	7155.95	-89.6719	0.0000000E+000	0.0000000E+000	0.0000000E+000	89.6719	0.0000000E+000	0.0000000E+000	0.0000000E+000	-89.6719	0.0000000E+000	0.0000000E+000	0.0000000E+000	-0.328144	0.0000000E+000	0.0000000E+000	0.0000000E+000	0.328144	174.603	89.6719	6.76839e-07
1040.33	9.90164	0.116602	9.90233	-0.674684	208.893	0.449758	0.012725	1312.03	0.181919	1	10	0.0104754	0.00105787	0	3.80967e-05	0.100979	0.00118913	0.100986	0.674684	181.919	15448.3	15449.4	-89.3253	0.0000000E+000	0.0000000E+000	0.0000000E+000	89.3253	0.0000000E+000	0.0000000E+000	0.0000000E+000	-89.3253	0.0000000E+000	0.0000000E+000	0.0000000E+000	-0.674684	0.0000000E+000	0.0000000E+000	0.0000000E+000	0.674684	84.9185	89.3253	2.04428e-06
480.769	9.91057	0.216028	9.91293	-1.24872	209.824	0.449757	0.0130007	1532.41	0.727762	1	10	0.0105017	0.0010594	0	4.00325e-05	0.100854	0.0021984	0.100878	1.24872	727.761	33387.1	33395	-88.7513	0.0000000E+000	0.0000000E+000	0.0000000E+000	88.7513	0.0000000E+000	0.0000000E+000	0.0000000E+000	-88.7513	0.0000000E+000	0.0000000E+000	0.0000000E+000	-1.24872	0.0000000E+000	0.0000000E+000	0.0000000E+000	1.24872	45.8764	88.7513	1.01412e-06
222.061	9.93535	0.440352	9.9451	-2.53779	210.748	0.44976	0.0133958	1627.6	3.19102	1	10	0.0105055	0.00105635	0	4.32835e-05	0.100453	0.00445227	0.100552	2.53779	3191.02	71996.8	72067.4	-87.4622	0.0000000E+000	0.0000000E+000	0.0000000E+000	87.4622	0.0000000E+000	0.0000000E+000	0.0000000E+000	-87.4622	0.0000000E+000	0.0000000E+000	0.0000000E+000	-2.53779	0.0000000E+000	0.0000000E+000	0.0000000E+000	2.53779	22.5623	87.4622	2.39798e-06
102.667	9.99283	0.89805	10.0331	-5.13534	211.685	0.449772	0.0124902	1726.19	13.8299	1	10	0.0105097	0.0010475	0	4.63333e-05	0.09927	0.00892134	0.0996701	5.13534	13829.9	153888	154509	-84.8647	0.0000000E+000	0.0000000E+000	0.0000000E+000	84.8647	0.0000000E+000	0.0000000E+000	0.0000000E+000	-84.8647	0.0000000E+000	0.0000000E+000	0.0000000E+000	-5.13534	0.0000000E+000	0.0000000E+000	0.0000000E+000	5.13534	11.1273	84.8647	1.82718e-06
47.4443	10.0971	1.8463	10.2646	-10.3622	212.596	0.449757	0.010377	1816.91	58.7837	1	10	0.0105205	0.00102493	0	5.00713e-05	0.0958336	0.0175235	0.0974226	10.3622	58783.7	321480	326810	-79.6377	0.0000000E+000	0.0000000E+000	0.0000000E+000	79.6377	0.0000000E+000	0.0000000E+000	0.0000000E+000	-79.6377	0.0000000E+000	0.0000000E+000	0.0000000E+000	-10.3622	0.0000000E+000	0.0000000E+000	0.0000000E+000	10.3622	5.46886	79.6377	1.66552e-06
21.9144	10.2555	3.75983	10.9229	-20.1338	213.464	0.449744	0.0109528	1931.62	228.864	1	10	0.0105219	0.000963284	0	5.23688e-05	0.0859559	0.0315129	0.0915504	20.1338	228864	624259	664890	-69.8662	0.0000000E+000	0.0000000E+000	0.0000000E+000	69.8662	0.0000000E+000	0.0000000E+000	0.0000000E+000	-69.8662	0.0000000E+000	0.0000000E+000	0.0000000E+000	-20.1338	0.0000000E+000	0.0000000E+000	0.0000000E+000	20.1338	2.72764	69.8662	1.91406e-06
10.1329	10.6263	7.69722	13.1212	-35.9178	214.642	0.449759	0.00105351	2040.57	702.216	1	11	0.0105471	0.000803822	0	5.0031e-05	0.0617214	0.0447081	0.0762125	35.9178	702216	969438	1.19705e+06	-54.0822	0.0000000E+000	0.0000000E+000	0.0000000E+000	54.0822	0.0000000E+000	0.0000000E+000	0.0000000E+000	-54.0822	0.0000000E+000	0.0000000E+000	0.0000000E+000	-35.9178	0.0000000E+000	0.0000000E+000	0.0000000E+000	35.9178	1.38054	54.0822	-5.00503e-06
4.68375	11.0625	16.1846	19.604	-55.6466	215.492	0.449761	0.000976155	2099.55	1430.99	1	11	0.0105505	0.000538182	0	5.09943e-05	0.0287847	0.0421124	0.0510099	55.6466	1.43099e+06	978110	1.73333e+06	-34.3534	0.0000000E+000	0.0000000E+000	0.0000000E+000	34.3534	0.0000000E+000	0.0000000E+000	0.0000000E+000	-34.3534	0.0000000E+000	0.0000000E+000	0.0000000E+000	-55.6466	0.0000000E+000	0.0000000E+000	0.0000000E+000	55.6466	0.68352	34.3534	-6.47572e-06
2.16533	11.8211	33.8759	35.8791	-70.7634	217.205	0.449769	0.00179724	2169.73	1934.21	1	11	0.0105485	0.000294001	0	5.69415e-05	0.00918275	0.0263152	0.0278713	70.7634	1.93421e+06	674947	2.04859e+06	-19.2366	0.0000000E+000	0.0000000E+000	0.0000000E+000	19.2366	0.0000000E+000	0.0000000E+000	0.0000000E+000	-19.2366	0.0000000E+000	0.0000000E+000	0.0000000E+000	-70.7634	0.0000000E+000	0.0000000E+000	0.0000000E+000	70.7634	0.348953	19.2366	6.92541e-06
1.00006	13.4071	71.9135	73.1526	-79.4394	221.545	0.449778	0.00038817	2213	2138.67	1	12	0.0105517	0.000144243	0	5.53457e-05	0.00250539	0.0134385	0.01367	79.4394	2.13867e+06	398720	2.17552e+06	-10.5606	0.0000000E+000	0.0000000E+000	0.0000000E+000	10.5606	0.0000000E+000	0.0000000E+000	0.0000000E+000	-10.5606	0.0000000E+000	0.0000000E+000	0.0000000E+000	-79.4394	0.0000000E+000	0.0000000E+000	0.0000000E+000	79.4394	0.186434	10.5606	-4.25704e-06

File: 20251112_2-148_003_alpha_Na_first_1_Na2_03_CVA_C01.mpt
EC-Lab ASCII FILE
Nb header lines : 66

Cyclic Voltammetry Advanced

Run on channel : 1 (SN 69187)
User :
CE vs. WE compliance from -10 V to 10 V
Electrode connection : standard
Potential control : Ewe
Ewe ctrl range : min = -1.00 V, max = 1.00 V
Safety Limits :
	Do not start on E overload
Acquisition started on : 11/12/2025 17:08:42.026
Loaded Setting File :  C:\Users\User\Documents\EC-Lab\Data\Yatsuzuka\20251030_2-147_gamma_reproducibility\20251030_2-147_001_gamma1_K_1.mps
Saved on :
	File : 20251112_2-148_003_alpha_Na_first_1_Na2_03_CVA_C01.mpr
	Directory : C:\Users\User\Documents\EC-Lab\Data\Yatsuzuka\20251112_2-148_alpha_reproducibility\
	Host : 192.109.209.127
Device : SP-150e (SN .003883)
Address : 192.109.209.128
EC-Lab for windows v11.52 (software)
Internet server v11.52 (firmware)
Command interpretor v11.50 (firmware)
Electrode material :
Initial state :
Electrolyte :
Comments :
Electrode surface area : 0.001 cm2
Characteristic mass : 0.001 g
Equivalent Weight : 0.000 g/eq.
Density : 0.000 g/cm3
Volume (V) : 0.001 cm3
Cycle Definition : Charge/Discharge alternance
Ei (V)              0.450
vs.                 Ref
ti (h:m:s)          0:00:10.0000
dti (s)             0.0000
dE/dt               5.000
dE/dt unit          mV/s
E1 (V)              0.700
vs.                 Ref
t1 (h:m:s)          0:00:0.0000
dt1 (s)             0.1000
Step percent        50
N                   10
E range min (V)     -1.000
E range max (V)     1.000
I Range             10 mA
I Range min         Unset
I Range max         Unset
I Range init        Unset
Bandwidth           5
E2 (V)              0.450
vs.                 Ref
t2 (h:m:s)          0:00:0.0000
dt2 (s)             0.1000
nc cycles           14
nr                  1
Reverse Scan        0
Ef (V)              0.000
vs.                 Eoc
tf (h:m:s)          0:00:0.0000
dtf (s)             0.1000

mode	ox/red	error	control changes	Ns changes	counter inc.	time/s	control/V	Ewe/V	<I>/mA	cycle number	(Q-Qo)/C	I Range	Ns	step time/s	P/W
2	0	0	1	0	0	231.665	0.449961	0.449716	-0.0150746	1	0.0000000E+000	11	0	0.000000000000000E+000	-6.77929e-06
2	0	0	1	0	0	244.502	0.514147	0.51391	0.0117482	1	0.000166851	11	0	12.7822	6.03751e-06
2	1	0	1	0	0	257.385	0.578558	0.578342	0.0150634	1	0.000345134	11	0	25.6644	8.7118e-06
2	1	0	1	0	0	270.267	0.642968	0.642781	0.0607023	1	0.000728091	11	0	38.5465	3.90183e-05
2	1	0	1	0	0	282.931	0.693698	0.693459	0.350989	1	0.00350586	11	0	51.2112	0.000243396
2	1	0	1	0	0	295.814	0.629287	0.629028	0.0182351	1	0.00506278	11	0	64.0933	1.14704e-05
2	0	0	1	0	0	308.696	0.564877	0.564686	-0.00754034	1	0.00505827	11	0	6.9903	-4.25793e-06
2	0	0	1	0	0	321.578	0.500466	0.50019	-0.00976896	1	0.00493244	11	0	19.8725	-4.88634e-06
2	1	0	1	0	1	334.317	0.463267	0.463024	0.0124103	2	0.00484661	11	0	2.5964	5.74628e-06
2	0	0	1	0	1	347.199	0.527678	0.527478	0.0104572	2	0.00500279	11	0	15.4785	5.51596e-06
2	1	0	1	0	1	360.082	0.592089	0.591836	0.0150735	2	0.0051757	11	0	28.3607	8.92105e-06
2	1	0	1	0	1	372.964	0.656499	0.6563	0.091389	2	0.00568062	11	0	41.2428	5.99786e-05
2	1	0	1	0	1	385.618	0.680217	0.680019	0.202953	2	0.00890751	11	0	53.8975	0.000138012
2	1	0	1	0	1	398.501	0.615806	0.615557	0.00590669	2	0.00972962	11	0	66.7797	3.63591e-06
2	0	0	0	0	1	411.383	0.551395	0.551154	-0.00879476	2	0.00966876	11	0	10.3856	-4.84727e-06
2	0	0	1	0	1	424.265	0.486985	0.486803	-0.0120512	2	0.00953617	11	0	23.2677	-5.86655e-06
2	1	0	1	0	0	437.004	0.476749	0.476505	0.0100544	3	0.0095114	11	0	5.2927	4.79096e-06
2	1	0	0	0	0	449.887	0.541159	0.540916	0.0130167	3	0.00966693	11	0	18.1748	7.04096e-06
2	1	0	1	0	0	462.769	0.60557	0.605355	0.0211688	3	0.00985428	11	0	31.0569	1.28146e-05
2	1	0	1	0	0	475.651	0.669981	0.669755	0.148066	3	0.0106126	11	0	43.9391	9.91681e-05
2	1	0	1	0	0	488.306	0.666735	0.666499	0.109831	3	0.013878	11	0	56.5938	7.32023e-05
2	0	0	1	0	0	501.188	0.602325	0.602042	-0.00218168	3	0.0142846	11	0	0.2996	-1.31346e-06
2	1	0	1	0	0	514.07	0.537913	0.53766	-0.0084445	3	0.0141938	11	0	13.1818	-4.54027e-06
2	0	0	1	0	0	526.952	0.473503	0.473227	-0.0106719	3	0.0140556	11	0	26.0639	-5.05021e-06
2	1	0	1	0	1	539.691	0.49023	0.490044	0.0117552	4	0.0140934	11	0	7.9889	5.76057e-06
2	1	0	1	0	1	552.574	0.554641	0.554427	0.01167	4	0.0142489	11	0	20.8711	6.47019e-06
2	1	0	1	0	1	565.456	0.619051	0.618847	0.025803	4	0.0144642	11	0	33.7532	1.59681e-05
2	1	0	1	0	1	578.338	0.683461	0.683269	0.247361	4	0.0156719	11	0	46.6353	0.000169014
2	1	0	1	0	1	590.993	0.653253	0.653068	0.0563661	4	0.0185978	11	0	59.2901	3.68109e-05
2	1	0	0	0	1	603.875	0.588843	0.588604	-0.0034351	4	0.0187712	11	0	2.6963	-2.02191e-06
2	0	0	1	0	1	616.757	0.524433	0.524189	-0.0114882	4	0.0186621	11	0	15.5784	-6.02199e-06
2	1	0	1	0	1	629.639	0.460021	0.459788	-0.0102051	4	0.0185198	11	0	28.4606	-4.69219e-06
2	1	0	0	0	0	642.379	0.503711	0.503485	0.0136299	5	0.0186223	11	0	10.6852	6.86244e-06
2	1	0	1	0	0	655.261	0.568122	0.56793	0.0131146	5	0.0187791	11	0	23.5673	7.44815e-06
2	1	0	1	0	0	668.143	0.632533	0.632309	0.0370339	5	0.0190445	11	0	36.4495	2.34169e-05
2	1	0	0	0	0	681.025	0.696943	0.696743	0.398193	5	0.021005	11	0	49.3316	0.000277439
2	1	0	1	0	0	693.68	0.639773	0.63957	0.0280652	5	0.0231535	11	0	61.9863	1.79497e-05
2	1	0	1	0	0	706.562	0.575361	0.575096	-0.00568452	5	0.0231964	11	0	5.6922	-3.26914e-06
2	0	0	1	0	0	719.444	0.510951	0.510718	-0.0094906	5	0.0230762	11	0	18.5743	-4.84702e-06
2	1	0	1	0	1	732.183	0.452782	0.452543	0.00927661	6	0.0229425	11	0	0.4993	4.19806e-06
2	1	0	1	0	1	745.066	0.517193	0.516953	0.0137546	6	0.0230949	11	0	13.3815	7.11048e-06
2	1	0	1	0	1	757.948	0.581603	0.581358	0.0148568	6	0.0232555	11	0	26.2636	8.63713e-06
2	1	0	1	0	1	770.83	0.646014	0.645817	0.057313	6	0.0236099	11	0	39.1457	3.70137e-05
2	1	0	1	0	1	783.485	0.690702	0.690504	0.294247	6	0.0263461	11	0	51.8004	0.000203178
2	1	0	0	0	1	796.367	0.626291	0.62607	0.0103204	6	0.0276077	11	0	64.6826	6.46127e-06
2	1	0	1	0	1	809.249	0.561881	0.561613	-0.00665431	6	0.0275769	11	0	8.2885	-3.73715e-06
2	0	0	1	0	1	822.131	0.497469	0.497241	-0.00935386	6	0.0274494	11	0	21.1707	-4.65113e-06
2	1	0	0	0	0	834.871	0.466263	0.465965	0.0133665	7	0.0273759	11	0	3.1956	6.2283e-06
2	1	0	1	0	0	847.753	0.530674	0.530435	0.013378	7	0.027529	11	0	16.0777	7.09615e-06
2	1	0	1	0	0	860.635	0.595085	0.594865	0.018073	7	0.0276989	11	0	28.9599	1.0751e-05
2	1	0	0	0	0	873.517	0.659495	0.659237	0.0978141	7	0.0282131	11	0	41.842	6.44827e-05
2	1	0	1	0	0	886.172	0.677221	0.676966	0.1674	7	0.0313398	11	0	54.4967	0.000113324
2	1	0	0	0	0	899.054	0.61281	0.612561	0.00253925	7	0.032004	11	0	67.3788	1.55544e-06
2	0	0	1	0	0	911.936	0.548399	0.548189	-0.00780344	7	0.0319311	11	0	11.1845	-4.27776e-06
2	0	0	1	0	0	924.818	0.483989	0.483809	-0.00966515	7	0.0317978	11	0	24.0666	-4.67609e-06
2	1	0	1	0	1	937.558	0.479745	0.479504	0.0132071	8	0.0317871	11	0	5.8919	6.33285e-06
2	1	0	1	0	1	950.44	0.544155	0.543899	0.0109098	8	0.0319407	11	0	18.774	5.9338e-06
2	1	0	1	0	1	963.322	0.608565	0.60833	0.018711	8	0.0321274	11	0	31.6561	1.13825e-05
2	1	0	1	0	1	976.204	0.672977	0.672741	0.15982	8	0.0329272	11	0	44.5383	0.000107517
2	1	0	1	0	1	988.859	0.66374	0.663552	0.0915433	8	0.0360337	11	0	57.1929	6.07437e-05
2	1	0	1	0	1	1001.74	0.599329	0.599094	-0.00190485	8	0.0363565	11	0	1.0985	-1.14118e-06
2	1	0	1	0	1	1014.62	0.534918	0.534707	-0.00821785	8	0.0362599	11	0	13.9806	-4.39415e-06
[...]
2	0	0	1	0	1	1207.11	0.572366	0.572154	-0.00719507	10	0.044992	11	0	6.3911	-4.11668e-06
2	1	0	1	0	1	1220	0.507956	0.507762	-0.00864137	10	0.0448713	11	0	19.2732	-4.38776e-06
2	1	0	1	0	0	1232.74	0.455778	0.455522	0.00946906	11	0.0447518	11	0	1.0985	4.31337e-06
2	0	0	1	0	0	1245.62	0.520189	0.51993	0.0106028	11	0.0449045	11	0	13.9807	5.51269e-06
2	1	0	0	0	0	1258.5	0.584599	0.584381	0.0157463	11	0.0450651	11	0	26.8628	9.20184e-06
2	1	0	1	0	0	1271.38	0.64901	0.648797	0.0618765	11	0.0454356	11	0	39.7449	4.01453e-05
2	1	0	0	0	0	1284.04	0.687706	0.687494	0.258702	11	0.0482494	11	0	52.3996	0.000177856
2	1	0	1	0	0	1296.92	0.623296	0.623077	0.00617011	11	0.0493154	11	0	65.2817	3.84445e-06
2	1	0	1	0	0	1309.8	0.558885	0.558671	-0.00836969	11	0.0492701	11	0	9.387	-4.6759e-06
2	1	0	0	0	0	1322.68	0.494474	0.494192	-0.00911547	11	0.0491418	11	0	22.2691	-4.5048e-06
2	1	0	1	0	1	1335.42	0.469259	0.46909	0.0135079	12	0.0490826	11	0	3.7947	6.33644e-06
2	1	0	1	0	1	1348.31	0.53367	0.533476	0.0117653	12	0.0492348	11	0	16.6769	6.2765e-06
2	1	0	1	0	1	1361.19	0.598081	0.597881	0.018588	12	0.0494051	11	0	29.5591	1.11134e-05
2	1	0	1	0	1	1374.07	0.662491	0.6623	0.105775	12	0.0499529	11	0	42.4412	7.00547e-05
2	1	0	1	0	1	1386.72	0.674224	0.673975	0.144504	12	0.0530558	11	0	55.0959	9.73923e-05
2	0	0	1	0	1	1399.61	0.609814	0.609569	-0.00145601	12	0.0536097	11	0	0.000000000000000E+000	-8.87537e-07
2	1	0	1	0	1	1412.49	0.545404	0.545161	-0.00819312	12	0.0535285	11	0	11.8835	-4.46657e-06
2	0	0	1	0	1	1425.37	0.480993	0.480782	-0.00963881	12	0.0533947	11	0	24.7657	-4.63416e-06
2	1	0	1	0	0	1438.11	0.48274	0.482494	0.0137798	13	0.0533971	11	0	6.491	6.64866e-06
2	1	0	0	0	0	1450.99	0.547151	0.54693	0.0130298	13	0.053549	11	0	19.3732	7.12641e-06
2	1	0	1	0	0	1463.88	0.611562	0.611358	0.0216921	13	0.0537372	11	0	32.2553	1.32616e-05
2	1	0	1	0	0	1476.76	0.675973	0.675741	0.177853	13	0.0546006	11	0	45.1375	0.000120182
2	1	0	1	0	0	1489.41	0.660744	0.660463	0.0772694	13	0.0576046	11	0	57.7921	5.10336e-05
2	0	0	1	0	0	1502.29	0.596332	0.596127	-0.00566222	13	0.0578602	11	0	1.6977	-3.3754e-06
2	0	0	0	0	0	1515.18	0.531922	0.531663	-0.0100002	13	0.0577584	11	0	14.5798	-5.31672e-06
2	1	0	1	0	0	1528.06	0.467512	0.467253	-0.00997004	13	0.0576197	11	0	27.4619	-4.65853e-06
2	1	0	1	0	1	1540.8	0.496222	0.495978	0.0135611	14	0.0576848	11	0	9.1873	6.72602e-06
2	1	0	0	0	1	1553.68	0.560632	0.560409	0.0130485	14	0.0578376	11	0	22.0694	7.31251e-06
2	1	0	1	0	1	1566.56	0.625043	0.624835	0.0288494	14	0.05806	11	0	34.9516	1.80261e-05
2	1	0	1	0	1	1579.44	0.689454	0.689241	0.292652	14	0.0594754	11	0	47.8337	0.000201708
2	1	0	1	0	1	1592.1	0.647262	0.647068	0.0363259	14	0.0620001	11	0	60.4884	2.35054e-05
2	0	0	1	0	1	1604.98	0.582852	0.582624	-0.00797849	14	0.0620877	11	0	4.3939	-4.64846e-06
2	0	0	1	0	1	1617.86	0.51844	0.518205	-0.0106367	14	0.0619738	11	0	17.2761	-5.51199e-06
2	1	0	1	0	1	1630.75	0.45403	0.453804	-0.0106446	14	0.0618308	11	0	30.1582	-4.83054e-06
2	1	0	1	0	0	1643.48	0.509702	0.509458	0.0126953	15	0.0619599	11	0	11.8835	6.4677e-06
2	1	0	1	0	0	1656.37	0.574114	0.573895	0.0138315	15	0.0621153	11	0	24.7657	7.9378e-06
2	1	0	1	0	0	1669.25	0.638524	0.638282	0.0417882	15	0.0623979	11	0	37.6478	2.66726e-05
2	1	0	1	0	0	1681.9	0.698192	0.697969	0.38885	15	0.0646093	11	0	50.3025	0.000271405
2	1	0	1	0	0	1694.79	0.63378	0.633562	0.0153817	15	0.0662965	11	0	63.1847	9.74526e-06
2	1	0	0	0	0	1707.67	0.56937	0.569172	-0.00584195	15	0.0662916	11	0	7.0902	-3.32508e-06
2	0	0	1	0	0	1720.55	0.50496	0.504685	-0.0121706	15	0.066169	11	0	19.9723	-6.1423e-06
2	1	0	0	0	0	1731.54	0.450011	0.449792	-0.00123679	15	0.0660442	11	0	30.9592	-5.56299e-07