Folder: SI_for_publications/ACS_Catal_2026/Figures_Na_K/main_figures/data/EC/20251112_2-148_alpha_reproducibility (part 16)

File: 20251112_2-148_003_alpha_Na_first_1_Na1_01_CVA_C01.mpt
EC-Lab ASCII FILE
Nb header lines : 66

Cyclic Voltammetry Advanced

Run on channel : 1 (SN 69187)
User :
CE vs. WE compliance from -10 V to 10 V
Electrode connection : standard
Potential control : Ewe
Ewe ctrl range : min = -1.00 V, max = 1.00 V
Safety Limits :
	Do not start on E overload
Acquisition started on : 11/12/2025 15:46:22.293
Loaded Setting File :  C:\Users\User\Documents\EC-Lab\Data\Yatsuzuka\20251030_2-147_gamma_reproducibility\20251030_2-147_001_gamma1_K_1.mps
Saved on :
	File : 20251112_2-148_003_alpha_Na_first_1_Na1_01_CVA_C01.mpr
	Directory : C:\Users\User\Documents\EC-Lab\Data\Yatsuzuka\20251112_2-148_alpha_reproducibility\
	Host : 192.109.209.127
Device : SP-150e (SN .003883)
Address : 192.109.209.128
EC-Lab for windows v11.52 (software)
Internet server v11.52 (firmware)
Command interpretor v11.50 (firmware)
Electrode material :
Initial state :
Electrolyte :
Comments :
Electrode surface area : 0.001 cm2
Characteristic mass : 0.001 g
Equivalent Weight : 0.000 g/eq.
Density : 0.000 g/cm3
Volume (V) : 0.001 cm3
Cycle Definition : Charge/Discharge alternance
Ei (V)              0.350
vs.                 Ref
ti (h:m:s)          0:00:10.0000
dti (s)             0.0000
dE/dt               10.000
dE/dt unit          mV/s
E1 (V)              0.450
vs.                 Ref
t1 (h:m:s)          0:00:0.0000
dt1 (s)             0.1000
Step percent        50
N                   10
E range min (V)     -1.000
E range max (V)     1.000
I Range             Auto
I Range min         Unset
I Range max         Unset
I Range init        Unset
Bandwidth           5
E2 (V)              0.350
vs.                 Ref
t2 (h:m:s)          0:00:0.0000
dt2 (s)             0.1000
nc cycles           9
nr                  1
Reverse Scan        0
Ef (V)              0.000
vs.                 Eoc
tf (h:m:s)          0:00:0.0000
dtf (s)             0.1000

mode	ox/red	error	control changes	Ns changes	counter inc.	time/s	control/V	Ewe/V	<I>/mA	cycle number	(Q-Qo)/C	I Range	Ns	step time/s	P/W
2	1	0	1	0	0	0.000000000000000E+000	0.34995	0.349762	0.0404378	1	0.0000000E+000	13	0	0.000000000000000E+000	1.41436e-05
2	1	0	1	0	0	1.755	0.367501	0.367231	0.0829226	1	0.000131695	12	0	1.7277	3.04518e-05
2	1	0	1	0	0	3.5025	0.384976	0.384714	0.078054	1	0.000273879	12	0	3.4752	3.00285e-05
2	1	0	1	0	0	5.2501	0.402452	0.402253	0.0871478	1	0.000422918	12	0	5.2228	3.50555e-05
2	1	0	1	0	0	6.9977	0.419927	0.419684	0.0942416	1	0.000577509	12	0	6.9704	3.95517e-05
2	1	0	1	0	0	8.7453	0.437403	0.437197	0.0884788	1	0.000735217	12	0	8.718	3.86827e-05
2	0	0	1	0	0	10.4596	0.445443	0.445178	0.0170535	1	0.000861761	13	0	10.4323	7.59184e-06
2	1	0	1	0	0	12.2072	0.427967	0.427736	-0.0136067	1	0.000864428	13	0	0.6491	-5.82008e-06
2	0	0	1	0	0	13.9548	0.41049	0.410274	-0.0170149	1	0.000839019	13	0	2.3967	-6.98079e-06
2	0	0	1	0	0	15.7023	0.393015	0.392743	-0.0229835	1	0.000797321	13	0	4.1442	-9.02659e-06
2	0	0	1	0	0	17.4499	0.375539	0.375281	-0.0367341	1	0.00074353	13	0	5.8918	-1.37856e-05
2	0	0	1	0	0	19.1975	0.358063	0.357804	-0.0449968	1	0.000679451	13	0	7.6394	-1.61001e-05
2	1	0	1	0	1	20.8927	0.358912	0.358676	0.0442194	2	0.000685287	13	0	0.8438	1.58604e-05
2	1	0	1	0	1	22.6403	0.376388	0.376171	0.0470796	2	0.000773123	13	0	2.5914	1.771e-05
2	1	0	1	0	1	24.3879	0.393864	0.393658	0.0518917	2	0.000861376	13	0	4.339	2.04276e-05
2	1	0	1	0	1	26.1355	0.411339	0.411152	0.0557968	2	0.000950765	13	0	6.0866	2.2941e-05
2	1	0	1	0	1	27.8831	0.428815	0.428633	0.0597477	2	0.00104302	13	0	7.8342	2.56098e-05
2	1	0	1	0	1	29.6307	0.446291	0.446109	0.0635373	2	0.00114093	13	0	9.5818	2.83446e-05
2	0	0	1	0	1	31.3849	0.436155	0.435904	-0.0111926	2	0.0011501	13	0	1.1783	-4.87889e-06
2	0	0	1	0	1	33.1325	0.418679	0.418431	-0.0205924	2	0.00111394	13	0	2.9259	-8.61651e-06
2	0	0	1	0	1	34.8801	0.401203	0.400939	-0.0282048	2	0.00106636	13	0	4.6735	-1.13084e-05
2	0	0	1	0	1	36.6277	0.383728	0.383453	-0.0345894	2	0.00101008	13	0	6.4211	-1.32634e-05
2	0	0	1	0	1	38.3753	0.366252	0.365983	-0.0414917	2	0.000945886	13	0	8.1687	-1.51853e-05
2	0	0	1	0	0	40.0455	0.350474	0.350212	0.0126183	3	0.000879051	13	0	0.000000000000000E+000	4.41909e-06
2	1	0	1	0	0	41.8381	0.368399	0.368199	0.0507513	3	0.000957462	13	0	1.7926	1.86866e-05
2	1	0	1	0	0	43.5856	0.385874	0.385673	0.0489647	3	0.00103744	13	0	3.5401	1.88844e-05
2	1	0	1	0	0	45.3332	0.40335	0.403104	0.0506295	3	0.00111665	13	0	5.2877	2.0409e-05
2	1	0	1	0	0	47.0808	0.420827	0.420598	0.0443022	3	0.00119626	13	0	7.0353	1.86334e-05
2	1	0	1	0	0	48.8283	0.438302	0.438089	0.04397	3	0.00127786	13	0	8.7828	1.92628e-05
2	0	0	1	0	0	50.5227	0.444743	0.444504	-0.0161584	3	0.00132998	13	0	0.3994	-7.18247e-06
2	0	0	1	0	0	52.2703	0.427267	0.427017	-0.0189598	3	0.00129375	13	0	2.147	-8.09618e-06
2	0	0	1	0	0	54.0179	0.409791	0.40957	-0.0292008	3	0.00124669	13	0	3.8946	-1.19598e-05
2	0	0	1	0	0	55.7655	0.392316	0.392013	-0.0394145	3	0.00119159	13	0	5.6422	-1.5451e-05
2	0	0	1	0	0	57.5131	0.37484	0.374569	-0.0401224	3	0.0011295	13	0	7.3898	-1.50286e-05
2	0	0	1	0	0	59.2606	0.357365	0.357095	-0.0383573	3	0.00106033	13	0	9.1373	-1.36972e-05
2	1	0	1	0	1	60.9359	0.359411	0.359214	0.0478872	4	0.00106383	13	0	0.8438	1.72018e-05
2	1	0	1	0	1	62.6835	0.376887	0.376639	0.0425454	4	0.00114051	13	0	2.5914	1.60243e-05
2	1	0	1	0	1	64.4311	0.394363	0.394124	0.038063	4	0.00121585	13	0	4.339	1.50015e-05
2	1	0	1	0	1	66.1786	0.411838	0.411642	0.0371912	4	0.00129021	13	0	6.0865	1.53095e-05
2	1	0	1	0	1	67.9262	0.429314	0.429114	0.0397611	4	0.00136471	13	0	7.8341	1.7062e-05
2	1	0	1	0	1	69.6738	0.446791	0.446573	0.04533	4	0.00144162	13	0	9.5817	2.02432e-05
2	0	0	1	0	1	71.4281	0.435656	0.435407	-0.0249515	4	0.00143126	13	0	1.2782	-1.0864e-05
2	0	0	1	0	1	73.1757	0.41818	0.417937	-0.0276511	4	0.00138591	13	0	3.0258	-1.15564e-05
2	0	0	1	0	1	74.9232	0.400705	0.400473	-0.0299001	4	0.0013329	13	0	4.7733	-1.19742e-05
2	0	0	1	0	1	76.6708	0.383229	0.382962	-0.0317267	4	0.00127346	13	0	6.5209	-1.21501e-05
2	0	0	1	0	1	78.4184	0.365752	0.365508	-0.0343864	4	0.00120749	13	0	8.2685	-1.25685e-05
2	1	0	1	0	0	80.0887	0.350973	0.350732	0.0296621	5	0.00114254	13	0	0.000000000000000E+000	1.04034e-05
2	1	0	1	0	0	81.8812	0.368899	0.368688	0.0371623	5	0.00121666	13	0	1.7925	1.37013e-05
2	1	0	1	0	0	83.6287	0.386374	0.386156	0.0367379	5	0.00129028	13	0	3.54	1.41865e-05
2	1	0	1	0	0	85.3763	0.40385	0.403633	0.0368745	5	0.00136221	13	0	5.2876	1.48838e-05
2	1	0	1	0	0	87.1239	0.421326	0.421146	0.0370124	5	0.00143339	13	0	7.0352	1.55876e-05
2	1	0	1	0	0	88.8715	0.438801	0.438607	0.0375376	5	0.0015052	13	0	8.7828	1.64642e-05
2	0	0	1	0	0	90.6258	0.443644	0.443394	-0.0266708	5	0.00154152	13	0	0.5443	-1.18257e-05
2	0	0	1	0	0	92.3733	0.426169	0.425897	-0.0324532	5	0.00149882	13	0	2.2918	-1.38217e-05
2	0	0	1	0	0	94.1209	0.408693	0.408476	-0.0362282	5	0.00144807	13	0	4.0394	-1.47983e-05
2	0	0	1	0	0	95.8685	0.391217	0.390897	-0.0393925	5	0.00139098	13	0	5.787	-1.53984e-05
2	0	0	1	0	0	97.6161	0.373741	0.373513	-0.0427567	5	0.0013279	13	0	7.5346	-1.59702e-05
2	0	0	1	0	0	99.3637	0.356266	0.355992	-0.0475185	5	0.00125814	13	0	9.2822	-1.69162e-05
2	1	0	1	0	1	101.079	0.360909	0.360668	0.0469167	6	0.00127158	13	0	0.9936	1.69214e-05
2	1	0	1	0	1	102.826	0.378385	0.378144	0.0461375	6	0.00134431	13	0	2.7412	1.74466e-05
2	1	0	1	0	1	104.574	0.395861	0.395631	0.0441341	6	0.00141517	13	0	4.4888	1.74608e-05
[...]
2	1	0	1	0	0	129.014	0.440299	0.440054	0.0426971	7	0.00165943	13	0	8.9326	1.8789e-05
2	0	0	1	0	0	130.769	0.442146	0.441947	-0.0176909	7	0.00168244	13	0	0.6941	-7.81846e-06
2	0	0	1	0	0	132.516	0.424671	0.424465	-0.0240615	7	0.00163693	13	0	2.4416	-1.02133e-05
2	0	0	1	0	0	134.264	0.407195	0.40696	-0.0268467	7	0.00158471	13	0	4.1892	-1.09255e-05
2	0	0	1	0	0	136.011	0.389719	0.389408	-0.0291798	7	0.00152684	13	0	5.9368	-1.13628e-05
2	0	0	1	0	0	137.759	0.372244	0.372008	-0.0327231	7	0.00146335	13	0	7.6844	-1.21732e-05
2	0	0	1	0	0	139.507	0.354768	0.35455	-0.0367304	7	0.00139337	13	0	9.432	-1.30228e-05
2	1	0	1	0	1	141.222	0.362407	0.362199	0.0351564	8	0.00141758	13	0	1.1434	1.27336e-05
2	1	0	1	0	1	142.969	0.379883	0.379629	0.0349512	8	0.00148806	13	0	2.891	1.32685e-05
2	1	0	1	0	1	144.717	0.397358	0.397129	0.0336567	8	0.00155634	13	0	4.6385	1.33661e-05
2	1	0	1	0	1	146.465	0.414834	0.41462	0.0328411	8	0.00162291	13	0	6.3861	1.36166e-05
2	1	0	1	0	1	148.212	0.432311	0.432084	0.0331387	8	0.00168861	13	0	8.1337	1.43187e-05
2	1	0	1	0	1	149.957	0.449761	0.449554	0.0332747	8	0.00175495	13	0	9.8787	1.49588e-05
2	0	0	1	0	1	151.714	0.43266	0.432409	-0.0237412	8	0.00171736	13	0	1.6428	-1.02659e-05
2	0	0	1	0	1	153.462	0.415185	0.414965	-0.0251059	8	0.00166757	13	0	3.3903	-1.04181e-05
2	0	0	1	0	1	155.209	0.397709	0.397437	-0.0280179	8	0.00161206	13	0	5.1379	-1.11353e-05
2	0	0	1	0	1	156.957	0.380232	0.379958	-0.0338435	8	0.00155127	13	0	6.8855	-1.28591e-05
2	0	0	1	0	1	158.704	0.362757	0.362513	-0.0422528	8	0.00148457	13	0	8.633	-1.53172e-05
2	1	0	1	0	0	160.42	0.354419	0.3542	0.0446357	9	0.00144452	13	0	0.3445	1.581e-05
2	1	0	1	0	0	162.167	0.371894	0.371703	0.0441235	9	0.00151437	13	0	2.092	1.64008e-05
2	1	0	1	0	0	163.915	0.38937	0.389169	0.0364468	9	0.00158286	13	0	3.8396	1.4184e-05
2	1	0	1	0	0	165.662	0.406846	0.406634	0.0326044	9	0.00164929	13	0	5.5872	1.3258e-05
2	1	0	1	0	0	167.41	0.424321	0.424077	0.037401	9	0.00171419	13	0	7.3348	1.58609e-05
2	1	0	1	0	0	169.157	0.441797	0.441577	0.0422332	9	0.00177874	13	0	9.0824	1.86492e-05
2	0	0	1	0	0	170.912	0.440649	0.440436	-0.0249358	9	0.00178946	13	0	0.8438	-1.09826e-05
2	0	0	1	0	0	172.659	0.423173	0.422923	-0.0342291	9	0.00174254	13	0	2.5914	-1.44763e-05
2	0	0	1	0	0	174.407	0.405697	0.405421	-0.0339859	9	0.00168958	13	0	4.339	-1.37786e-05
2	0	0	1	0	0	176.154	0.388221	0.38791	-0.0297604	9	0.00163126	13	0	6.0866	-1.15443e-05
2	0	0	1	0	0	177.902	0.370746	0.370511	-0.0377114	9	0.00156744	13	0	7.8342	-1.39725e-05
2	0	0	1	0	0	179.65	0.35327	0.353005	-0.0479323	9	0.0014974	13	0	9.5818	-1.69204e-05
2	1	0	1	0	1	181.365	0.363905	0.363658	0.0397892	10	0.00153391	13	0	1.2932	1.44697e-05
2	1	0	1	0	1	183.112	0.381381	0.38111	0.0337117	10	0.00160284	13	0	3.0408	1.28479e-05
2	1	0	1	0	1	184.86	0.398856	0.398616	0.0421964	10	0.00166928	13	0	4.7883	1.68201e-05
2	1	0	1	0	1	186.608	0.416332	0.416146	0.0375656	10	0.00173376	13	0	6.5359	1.56328e-05
2	1	0	1	0	1	188.355	0.433809	0.433564	0.0308977	10	0.00179749	13	0	8.2835	1.33961e-05
2	0	0	1	0	1	190.064	0.449087	0.448851	-0.0214086	10	0.00185628	13	0	0.000000000000000E+000	-9.60928e-06
2	0	0	1	0	1	191.857	0.431162	0.430921	-0.0254904	10	0.00181249	13	0	1.7926	-1.09843e-05
2	0	0	1	0	1	193.605	0.413687	0.413446	-0.0358266	10	0.00176198	13	0	3.5401	-1.48124e-05
2	0	0	1	0	1	195.352	0.39621	0.395917	-0.0323996	10	0.0017062	13	0	5.2877	-1.28275e-05
2	0	0	1	0	1	197.1	0.378734	0.378433	-0.0318588	10	0.00164504	13	0	7.0353	-1.20564e-05
2	0	0	1	0	1	198.847	0.361259	0.361004	-0.0400576	10	0.00157815	13	0	8.7828	-1.4461e-05
2	0	0	1	0	1	199.971	0.35	0.349685	-0.0438626	10	0.0015315	13	0	9.9063	-1.53381e-05

File: 20251112_2-148_003_alpha_Na_first_1_Na1_02_PEIS_C01.mpt
EC-Lab ASCII FILE
Nb header lines : 63

Potentio Electrochemical Impedance Spectroscopy

Run on channel : 1 (SN 69187)
User :
CE vs. WE compliance from -10 V to 10 V
Electrode connection : standard
Potential control : Ewe
Ewe ctrl range : min = -1.00 V, max = 1.00 V
Safety Limits :
	Do not start on E overload
Acquisition started on : 11/12/2025 15:46:22.293
Loaded Setting File :  C:\Users\User\Documents\EC-Lab\Data\Yatsuzuka\20251030_2-147_gamma_reproducibility\20251030_2-147_001_gamma1_K_1.mps
Saved on :
	File : 20251112_2-148_003_alpha_Na_first_1_Na1_02_PEIS_C01.mpr
	Directory : C:\Users\User\Documents\EC-Lab\Data\Yatsuzuka\20251112_2-148_alpha_reproducibility\
	Host : 192.109.209.127
Device : SP-150e (SN .003883)
Address : 192.109.209.128
EC-Lab for windows v11.52 (software)
Internet server v11.52 (firmware)
Command interpretor v11.50 (firmware)
Electrode material :
Initial state :
Electrolyte :
Comments :
Electrode surface area : 0.001 cm2
Characteristic mass : 0.001 g
Equivalent Weight : 0.000 g/eq.
Density : 0.000 g/cm3
Volume (V) : 0.001 cm3
Cycle Definition : Charge/Discharge alternance
Mode                Single sine
E (V)               0.4500
vs.                 Ref
tE (h:m:s)          0:00:0.0000
record              0
dI                  0.000
unit dI             mA
dt (s)              0.000
fi                  500.000
unit fi             kHz
ff                  1.000
unit ff             Hz
Nd                  6
Points              per decade
spacing             Logarithmic
Va (mV)             10.0
pw                  0.10
Na                  2
corr                0
E range min (V)     -1.000
E range max (V)     1.000
I Range             Auto
Bandwidth           5
nc cycles           0
goto Ns'            0
nr cycles           0
inc. cycle          0

freq/Hz	Re(Z)/Ohm	-Im(Z)/Ohm	|Z|/Ohm	Phase(Z)/deg	time/s	<Ewe>/V	<I>/mA	Cs/uF	Cp/uF	cycle number	I Range	|Ewe|/V	|I|/A	Ns	(Q-Qo)/mA.h	Re(Y)/Ohm-1	Im(Y)/Ohm-1	|Y|/Ohm-1	Phase(Y)/deg	Re(C)/nF	Im(C)/nF	|C|/nF	Phase(C)/deg	Re(M)	Im(M)	|M|	Phase(M)/deg	Re(Permittivity)	Im(Permittivity)	|Permittivity|	Phase(Permittivity)/deg	Re(Resistivity)/Ohm.cm	Im(Resistivity)/Ohm.cm	|Resistivity|/Ohm.cm	Phase(Resistivity)/deg	Re(Conductivity)/mS/cm	Im(Conductivity)/mS/cm	|Conductivity|/mS/cm	Phase(Conductivity)/deg	Tan(Delta)	Loss Angle(Delta)/deg	dq/mA.h
500019	17.7801	-2.56033	17.9635	8.19426	201.733	0.450135	0.018142	-0.124319	-0.00252551	1	10	0.00560447	0.000311993	0	2.43007e-05	0.0551002	-0.00793442	0.0556685	-8.19426	-2.52551	17.5383	17.7192	-98.1943	0.0000000E+000	0.0000000E+000	0.0000000E+000	98.1943	0.0000000E+000	0.0000000E+000	0.0000000E+000	-98.1943	0.0000000E+000	0.0000000E+000	0.0000000E+000	8.19426	0.0000000E+000	0.0000000E+000	0.0000000E+000	-8.19426	6.94445	81.8057	2.43007e-05
231063	10.3774	-1.05752	10.4312	5.81868	202.577	0.449819	0.0194539	-0.651331	-0.0066944	1	10	0.0104946	0.00100608	0	2.91622e-05	0.0953725	-0.00971899	0.0958664	-5.81868	-6.6944	65.6921	66.0324	-95.8187	0.0000000E+000	0.0000000E+000	0.0000000E+000	95.8187	0.0000000E+000	0.0000000E+000	0.0000000E+000	-95.8187	0.0000000E+000	0.0000000E+000	0.0000000E+000	5.81868	0.0000000E+000	0.0000000E+000	0.0000000E+000	-5.81868	9.813	84.1813	2.56473e-06
106786	9.3772	-0.289686	9.38167	1.76945	203.421	0.449769	0.0201042	-5.1449	-0.00490537	1	10	0.0109374	0.00116583	0	2.906e-05	0.10654	-0.0032913	0.106591	-1.76945	-4.90538	158.788	158.864	-91.7695	0.0000000E+000	0.0000000E+000	0.0000000E+000	91.7695	0.0000000E+000	0.0000000E+000	0.0000000E+000	-91.7695	0.0000000E+000	0.0000000E+000	0.0000000E+000	1.76945	0.0000000E+000	0.0000000E+000	0.0000000E+000	-1.76945	32.3702	88.2305	3.91602e-07
49352.4	9.25626	-0.0894928	9.25669	0.553939	204.265	0.449773	0.0170146	-36.035	-0.00336813	1	10	0.0106087	0.00114606	0	3.58844e-05	0.108025	-0.00104442	0.10803	-0.553939	-3.36814	348.366	348.382	-90.5539	0.0000000E+000	0.0000000E+000	0.0000000E+000	90.5539	0.0000000E+000	0.0000000E+000	0.0000000E+000	-90.5539	0.0000000E+000	0.0000000E+000	0.0000000E+000	0.553939	0.0000000E+000	0.0000000E+000	0.0000000E+000	-0.553939	103.43	89.4461	2.69827e-06
22806.6	9.24582	-0.0237111	9.24585	0.146936	205.109	0.449762	0.0149891	-294.312	-0.00193561	1	10	0.0104887	0.00113442	0	4.09199e-05	0.108156	-0.000277369	0.108157	-0.146936	-1.93559	754.765	754.768	-90.1469	0.0000000E+000	0.0000000E+000	0.0000000E+000	90.1469	0.0000000E+000	0.0000000E+000	0.0000000E+000	-90.1469	0.0000000E+000	0.0000000E+000	0.0000000E+000	0.146936	0.0000000E+000	0.0000000E+000	0.0000000E+000	-0.146936	389.936	89.8531	2.40842e-06
10540.4	9.24211	0.00186663	9.24211	-0.011572	205.953	0.449768	0.0166158	8089.19	0.000329975	1	10	0.0103264	0.00111733	0	4.51823e-05	0.1082	2.18533e-05	0.1082	0.011572	0.330024	1633.78	1633.78	-89.9884	0.0000000E+000	0.0000000E+000	0.0000000E+000	89.9884	0.0000000E+000	0.0000000E+000	0.0000000E+000	-89.9884	0.0000000E+000	0.0000000E+000	0.0000000E+000	-0.011572	0.0000000E+000	0.0000000E+000	0.0000000E+000	0.011572	4951.22	89.9884	1.85661e-06
4871.56	9.25132	0.0295103	9.25137	-0.182764	206.945	0.449762	0.0165189	1107.08	0.0112645	1	10	0.0109558	0.00118423	0	4.88703e-05	0.108092	0.000344795	0.108092	0.182764	11.2644	3531.38	3531.39	-89.8172	0.0000000E+000	0.0000000E+000	0.0000000E+000	89.8172	0.0000000E+000	0.0000000E+000	0.0000000E+000	-89.8172	0.0000000E+000	0.0000000E+000	0.0000000E+000	-0.182764	0.0000000E+000	0.0000000E+000	0.0000000E+000	0.182764	313.495	89.8172	1.74186e-06
2250.72	9.25264	0.0563067	9.25281	-0.348668	208.097	0.449766	0.0160754	1255.85	0.0465063	1	10	0.0103095	0.0011142	0	5.22719e-05	0.108073	0.000657678	0.108075	0.348668	46.5067	7642.17	7642.32	-89.6513	0.0000000E+000	0.0000000E+000	0.0000000E+000	89.6513	0.0000000E+000	0.0000000E+000	0.0000000E+000	-89.6513	0.0000000E+000	0.0000000E+000	0.0000000E+000	-0.348668	0.0000000E+000	0.0000000E+000	0.0000000E+000	0.348668	164.326	89.6513	1.86339e-06
1040.33	9.26127	0.0911356	9.26172	-0.563801	209.027	0.449768	0.0167556	1678.65	0.162537	1	10	0.0104576	0.00112912	0	5.69432e-05	0.107966	0.00106244	0.107971	0.563801	162.538	16517.2	16518	-89.4362	0.0000000E+000	0.0000000E+000	0.0000000E+000	89.4362	0.0000000E+000	0.0000000E+000	0.0000000E+000	-89.4362	0.0000000E+000	0.0000000E+000	0.0000000E+000	-0.563801	0.0000000E+000	0.0000000E+000	0.0000000E+000	0.563801	101.621	89.4362	2.38676e-06
480.769	9.28368	0.194914	9.28572	-1.20277	209.957	0.449766	0.0150971	1698.41	0.748332	1	10	0.0104971	0.00113045	0	6.11561e-05	0.107668	0.00226053	0.107692	1.20277	748.333	35642.8	35650.7	-88.7972	0.0000000E+000	0.0000000E+000	0.0000000E+000	88.7972	0.0000000E+000	0.0000000E+000	0.0000000E+000	-88.7972	0.0000000E+000	0.0000000E+000	0.0000000E+000	-1.20277	0.0000000E+000	0.0000000E+000	0.0000000E+000	1.20277	47.6297	88.7972	2.03133e-06
222.061	9.31449	0.377022	9.32212	-2.31789	210.881	0.449761	0.0162133	1901	3.10947	1	10	0.0105089	0.00112731	0	6.4587e-05	0.107184	0.00433848	0.107272	2.31789	3109.47	76820.7	76883.6	-87.6821	0.0000000E+000	0.0000000E+000	0.0000000E+000	87.6821	0.0000000E+000	0.0000000E+000	0.0000000E+000	-87.6821	0.0000000E+000	0.0000000E+000	0.0000000E+000	-2.31789	0.0000000E+000	0.0000000E+000	0.0000000E+000	2.31789	24.7054	87.6821	9.02922e-07
102.667	9.37166	0.753169	9.40187	-4.59479	211.819	0.449761	0.0153524	2058.24	13.2084	1	10	0.0105151	0.0011184	0	7.00572e-05	0.10602	0.00852046	0.106362	4.59479	13208.4	164352	164882	-85.4052	0.0000000E+000	0.0000000E+000	0.0000000E+000	85.4052	0.0000000E+000	0.0000000E+000	0.0000000E+000	-85.4052	0.0000000E+000	0.0000000E+000	0.0000000E+000	-4.59479	0.0000000E+000	0.0000000E+000	0.0000000E+000	4.59479	12.443	85.4052	3.0885e-06
47.4443	9.47786	1.50934	9.59729	-9.04832	212.731	0.449761	0.0141542	2222.54	54.97	1	10	0.010518	0.00109593	0	7.55343e-05	0.1029	0.0163867	0.104196	9.04832	54970	345183	349532	-80.9517	0.0000000E+000	0.0000000E+000	0.0000000E+000	80.9517	0.0000000E+000	0.0000000E+000	0.0000000E+000	-80.9517	0.0000000E+000	0.0000000E+000	0.0000000E+000	-9.04832	0.0000000E+000	0.0000000E+000	0.0000000E+000	9.04832	6.27947	80.9517	2.89986e-06
21.9144	9.65371	3.03248	10.1188	-17.4388	213.599	0.449747	0.0141747	2394.93	215.095	1	10	0.0105369	0.00104132	0	8.09197e-05	0.0942837	0.0296169	0.098826	17.4388	215094	684741	717730	-72.5612	0.0000000E+000	0.0000000E+000	0.0000000E+000	72.5612	0.0000000E+000	0.0000000E+000	0.0000000E+000	-72.5612	0.0000000E+000	0.0000000E+000	0.0000000E+000	-17.4388	0.0000000E+000	0.0000000E+000	0.0000000E+000	17.4388	3.18344	72.5612	4.3387e-06
10.1329	9.91444	6.16793	11.6764	-31.8864	214.526	0.449762	0.0154232	2546.51	710.562	1	10	0.0105432	0.000902948	0	8.298e-05	0.0727188	0.0452395	0.0856425	31.8864	710562	1.14217e+06	1.34516e+06	-58.1136	0.0000000E+000	0.0000000E+000	0.0000000E+000	58.1136	0.0000000E+000	0.0000000E+000	0.0000000E+000	-58.1136	0.0000000E+000	0.0000000E+000	0.0000000E+000	-31.8864	0.0000000E+000	0.0000000E+000	0.0000000E+000	31.8864	1.60742	58.1136	-8.56258e-07
4.68375	10.3798	12.7253	16.4218	-50.7964	215.576	0.449768	0.00432407	2670.29	1603.45	1	11	0.0105536	0.000642657	0	9.38664e-05	0.0384903	0.0471877	0.0608948	50.7964	1.60345e+06	1.30791e+06	2.06922e+06	-39.2036	0.0000000E+000	0.0000000E+000	0.0000000E+000	39.2036	0.0000000E+000	0.0000000E+000	0.0000000E+000	-39.2036	0.0000000E+000	0.0000000E+000	0.0000000E+000	-50.7964	0.0000000E+000	0.0000000E+000	0.0000000E+000	50.7964	0.815684	39.2036	9.06534e-06
2.16533	11.1385	26.8101	29.0318	-67.4391	217.29	0.449772	0.00538282	2741.56	2338.01	1	11	0.0105506	0.000363416	0	8.4103e-05	0.0132153	0.0318089	0.0344449	67.4391	2.33801e+06	971348	2.53176e+06	-22.5609	0.0000000E+000	0.0000000E+000	0.0000000E+000	22.5609	0.0000000E+000	0.0000000E+000	0.0000000E+000	-22.5609	0.0000000E+000	0.0000000E+000	0.0000000E+000	-67.4391	0.0000000E+000	0.0000000E+000	0.0000000E+000	67.4391	0.41546	22.5609	-4.45739e-06
1.00006	12.5187	56.995	58.3536	-77.6119	221.63	0.449777	0.00403713	2792.26	2663.75	1	12	0.0105519	0.000180826	0	0.000100397	0.00367641	0.0167379	0.0171369	77.6119	2.66375e+06	585081	2.72725e+06	-12.3881	0.0000000E+000	0.0000000E+000	0.0000000E+000	12.3881	0.0000000E+000	0.0000000E+000	0.0000000E+000	-12.3881	0.0000000E+000	0.0000000E+000	0.0000000E+000	-77.6119	0.0000000E+000	0.0000000E+000	0.0000000E+000	77.6119	0.219646	12.3881	8.77029e-06