Folder: SI_for_publications/ACS_Catal_2026/Figures_Na_K/main_figures/data/EC/20251112_2-148_alpha_reproducibility (part 23)

File: 20251112_2-148_004_Na_first_2_Na1_03_CVA_C02.mpt
EC-Lab ASCII FILE
Nb header lines : 66

Cyclic Voltammetry Advanced

Run on channel : 2 (SN 69290)
User :
CE vs. WE compliance from -10 V to 10 V
Electrode connection : standard
Potential control : Ewe
Ewe ctrl range : min = -1.00 V, max = 1.00 V
Safety Limits :
	Do not start on E overload
Acquisition started on : 11/12/2025 15:49:31.265
Loaded Setting File :  C:\Users\User\Documents\EC-Lab\Data\Yatsuzuka\20251112_2-148_alpha_reproducibility\20251112_2-148_002_alpha_reproducibility_2_K1.mps
Saved on :
	File : 20251112_2-148_004_Na_first_2_Na1_03_CVA_C02.mpr
	Directory : C:\Users\User\Documents\EC-Lab\Data\Yatsuzuka\20251112_2-148_alpha_reproducibility\
	Host : 192.109.209.127
Device : SP-150e (SN .003883)
Address : 192.109.209.128
EC-Lab for windows v11.52 (software)
Internet server v11.52 (firmware)
Command interpretor v11.50 (firmware)
Electrode material :
Initial state :
Electrolyte :
Comments :
Electrode surface area : 0.001 cm2
Characteristic mass : 0.001 g
Equivalent Weight : 0.000 g/eq.
Density : 0.000 g/cm3
Volume (V) : 0.001 cm3
Cycle Definition : Charge/Discharge alternance
Ei (V)              0.450
vs.                 Ref
ti (h:m:s)          0:00:10.0000
dti (s)             0.0000
dE/dt               5.000
dE/dt unit          mV/s
E1 (V)              0.700
vs.                 Ref
t1 (h:m:s)          0:00:0.0000
dt1 (s)             0.1000
Step percent        50
N                   10
E range min (V)     -1.000
E range max (V)     1.000
I Range             10 mA
I Range min         Unset
I Range max         Unset
I Range init        Unset
Bandwidth           5
E2 (V)              0.450
vs.                 Ref
t2 (h:m:s)          0:00:0.0000
dt2 (s)             0.1000
nc cycles           14
nr                  1
Reverse Scan        0
Ef (V)              0.000
vs.                 Eoc
tf (h:m:s)          0:00:0.0000
dtf (s)             0.1000

mode	ox/red	error	control changes	Ns changes	counter inc.	time/s	control/V	Ewe/V	<I>/mA	cycle number	(Q-Qo)/C	I Range	Ns	step time/s	P/W
2	0	0	1	0	0	231.863	0.450021	0.449458	-0.00447789	1	0.0000000E+000	11	0	0.000000000000000E+000	-2.01262e-06
2	1	0	1	0	0	244.703	0.51422	0.51372	0.0306061	1	0.000308993	11	0	12.7849	1.57229e-05
2	1	0	1	0	0	257.588	0.578643	0.578205	0.0615372	1	0.000861017	11	0	25.6696	3.55811e-05
2	1	0	1	0	0	270.473	0.643066	0.642565	0.194012	1	0.00226112	11	0	38.5543	0.000124666
2	1	0	1	0	0	283.108	0.693756	0.693332	0.66431	1	0.0082862	11	0	51.1897	0.000460587
2	1	0	1	0	0	295.993	0.629333	0.628895	0.0565414	1	0.0114917	11	0	64.0744	3.55586e-05
2	1	0	1	0	0	308.877	0.56491	0.56447	0.000782567	1	0.011706	11	0	0.000000000000000E+000	4.41736e-07
2	0	0	1	0	0	321.762	0.500485	0.500022	-0.0109059	1	0.0116297	11	0	12.4852	-5.45321e-06
2	1	0	1	0	1	334.416	0.462831	0.462357	0.0153767	2	0.0115615	11	0	2.4971	7.10952e-06
2	1	0	0	0	1	347.301	0.527254	0.526748	0.014173	2	0.0117729	11	0	15.3818	7.46561e-06
2	1	0	1	0	1	360.186	0.591677	0.591257	0.0298901	2	0.0120332	11	0	28.2665	1.76727e-05
2	1	0	1	0	1	373.071	0.656101	0.655685	0.173406	2	0.0129885	11	0	41.1512	0.0001137
2	1	0	0	0	1	385.696	0.680772	0.680338	0.343341	2	0.0184349	11	0	53.7766	0.000233588
2	1	0	1	0	1	398.581	0.616349	0.615875	0.0213875	2	0.02004	11	0	66.6613	1.3172e-05
2	1	0	1	0	1	411.465	0.551924	0.551465	-0.00644414	2	0.0200677	11	0	5.2938	-3.55372e-06
2	0	0	1	0	1	424.35	0.487501	0.487033	-0.0100607	2	0.0199483	11	0	18.1785	-4.89991e-06
2	0	0	1	0	0	437.004	0.475815	0.475374	0.0131214	3	0.0199342	11	0	5.094	6.23759e-06
2	1	0	1	0	0	449.889	0.540238	0.539773	0.016343	3	0.0201296	11	0	17.9787	8.82149e-06
2	1	0	0	0	0	462.774	0.604662	0.604206	0.0340142	3	0.0203946	11	0	30.8634	2.05516e-05
2	1	0	1	0	0	475.658	0.669085	0.668677	0.241854	3	0.0216665	11	0	43.7481	0.000161722
2	1	0	1	0	0	488.284	0.667787	0.667354	0.188894	3	0.0267746	11	0	56.3735	0.000126059
2	1	0	1	0	0	501.169	0.603363	0.602859	0.00763414	3	0.0276082	11	0	69.2583	4.60231e-06
2	1	0	0	0	0	514.053	0.53894	0.538505	-0.00683616	3	0.0275631	11	0	8.7896	-3.68131e-06
2	1	0	1	0	0	526.938	0.474516	0.474047	-0.00927722	3	0.0274297	11	0	21.6743	-4.39784e-06
2	0	0	1	0	1	539.592	0.488799	0.488366	0.0120096	4	0.0274798	11	0	7.7459	5.86506e-06
2	1	0	1	0	1	552.477	0.553223	0.552769	0.01591	4	0.02767	11	0	20.6306	8.79457e-06
2	1	0	1	0	1	565.362	0.617647	0.617214	0.0412919	4	0.027972	11	0	33.5154	2.54859e-05
2	1	0	1	0	1	578.246	0.682071	0.681641	0.357669	4	0.0298127	11	0	46.4001	0.000243802
2	1	0	1	0	1	590.872	0.654802	0.654374	0.104916	4	0.0342622	11	0	59.0255	6.86542e-05
2	1	0	1	0	1	603.757	0.590379	0.589908	-0.00106324	4	0.0346849	11	0	0.0999	-6.27216e-07
2	0	0	1	0	1	616.641	0.525955	0.525495	-0.0109664	4	0.034602	11	0	11.9858	-5.76278e-06
2	0	0	0	0	1	629.526	0.461532	0.461025	-0.0117911	4	0.034461	11	0	24.8705	-5.436e-06
2	0	0	0	0	0	642.18	0.501784	0.501341	0.0131877	5	0.0345777	11	0	10.3428	6.61155e-06
2	1	0	1	0	0	655.065	0.566207	0.565744	0.0158561	5	0.0347688	11	0	23.2275	8.9705e-06
2	1	0	1	0	0	667.95	0.630632	0.63022	0.0596641	5	0.0351413	11	0	36.1123	3.76015e-05
2	1	0	1	0	0	680.834	0.695055	0.694612	0.532239	5	0.0378941	11	0	48.997	0.000369699
2	1	0	0	0	0	693.46	0.641818	0.641387	0.058597	5	0.0412445	11	0	61.6224	3.75834e-05
2	1	0	1	0	0	706.344	0.577394	0.576976	-0.00257119	5	0.0414335	11	0	1.9976	-1.48352e-06
2	1	0	1	0	0	719.229	0.512971	0.512503	-0.00954985	5	0.0413285	11	0	14.8823	-4.89433e-06
2	0	0	1	0	1	731.883	0.450345	0.449845	0.00688708	6	0.0411842	11	0	0.000000000000000E+000	3.09812e-06
2	1	0	1	0	1	744.768	0.514768	0.514322	0.012436	6	0.0413632	11	0	12.8847	6.39609e-06
2	0	0	1	0	1	757.653	0.579193	0.578748	0.0164892	6	0.0415581	11	0	25.7695	9.54309e-06
2	1	0	0	0	1	770.538	0.643616	0.643151	0.0830721	6	0.0420514	11	0	38.6542	5.34279e-05
2	1	0	1	0	1	783.163	0.693257	0.692794	0.452431	6	0.0457704	11	0	51.2796	0.000313441
2	1	0	1	0	1	796.048	0.628833	0.628383	0.031255	6	0.0478623	11	0	64.1643	1.96401e-05
2	0	0	0	0	1	808.932	0.56441	0.563956	-0.00838694	6	0.0479197	11	0	4.7943	-4.72987e-06
2	0	0	1	0	1	821.817	0.499987	0.499513	-0.0117151	6	0.0478012	11	0	17.679	-5.85183e-06
2	0	0	1	0	0	834.471	0.463329	0.462863	0.0115702	7	0.0477184	11	0	2.5969	5.35542e-06
2	1	0	1	0	0	847.356	0.527754	0.527266	0.0159897	7	0.0478974	11	0	15.4817	8.43082e-06
2	1	0	1	0	0	860.241	0.592177	0.591736	0.0199094	7	0.0481035	11	0	28.3664	1.17811e-05
2	1	0	1	0	0	873.125	0.6566	0.656163	0.126968	7	0.0488012	11	0	41.2511	8.33117e-05
2	1	0	1	0	0	885.751	0.680272	0.679843	0.264616	7	0.0530468	11	0	53.8765	0.000179897
2	1	0	1	0	0	898.636	0.615849	0.615375	0.0144938	7	0.0542286	11	0	66.7612	8.91911e-06
2	1	0	1	0	0	911.52	0.551426	0.55094	-0.00676081	7	0.0542093	11	0	7.591	-3.7248e-06
2	0	0	1	0	0	924.405	0.487001	0.486554	-0.0100714	7	0.0540822	11	0	20.4758	-4.90026e-06
2	0	0	1	0	1	937.059	0.476315	0.47588	0.0128919	8	0.0540642	11	0	5.2489	6.13499e-06
2	1	0	0	0	1	949.944	0.540738	0.540266	0.0142143	8	0.0542419	11	0	18.1336	7.67951e-06
2	1	0	1	0	1	962.829	0.605161	0.604685	0.0261408	8	0.0544692	11	0	31.0183	1.58069e-05
2	1	0	1	0	1	975.713	0.669585	0.669096	0.199744	8	0.0554996	11	0	43.903	0.000133648
2	1	0	0	0	1	988.339	0.667288	0.666847	0.150601	8	0.0597301	11	0	56.5284	0.000100428
2	1	0	1	0	1	1001.22	0.602865	0.602387	0.00266518	8	0.0603637	11	0	69.4131	1.60547e-06
2	1	0	1	0	1	1014.11	0.53844	0.53801	-0.00688627	8	0.0602987	11	0	10.188	-3.70488e-06
[...]
2	0	0	1	0	1	1206.4	0.576895	0.576447	-0.00579746	10	0.072248	11	0	3.0964	-3.34193e-06
2	0	0	1	0	1	1219.28	0.512471	0.511982	-0.0106392	10	0.0721399	11	0	15.9811	-5.44709e-06
2	1	0	1	0	0	1231.94	0.450844	0.45036	0.011533	11	0.0719996	11	0	0.0999	5.194e-06
2	1	0	0	0	0	1244.82	0.515268	0.514798	0.0133095	11	0.0721723	11	0	12.9846	6.85172e-06
2	1	0	1	0	0	1257.71	0.579691	0.579196	0.0186641	11	0.0723573	11	0	25.8693	1.08102e-05
2	1	0	1	0	0	1270.59	0.644116	0.643645	0.0747617	11	0.0728038	11	0	38.7541	4.812e-05
2	1	0	0	0	0	1283.22	0.692758	0.692281	0.403089	11	0.0761695	11	0	51.3794	0.000279051
2	1	0	0	0	0	1296.1	0.628334	0.62786	0.0254843	11	0.077991	11	0	64.2642	1.60005e-05
2	1	0	1	0	0	1308.99	0.56391	0.563437	-0.00533135	11	0.0780223	11	0	5.4935	-3.00388e-06
2	0	0	1	0	0	1321.87	0.499487	0.498999	-0.0128245	11	0.0779022	11	0	18.3782	-6.39942e-06
2	1	0	1	0	1	1334.53	0.463829	0.463366	0.0148868	12	0.0778222	11	0	2.6968	6.89803e-06
2	1	0	1	0	1	1347.41	0.528252	0.527745	0.0153064	12	0.0779953	11	0	15.5815	8.07787e-06
2	1	0	1	0	1	1360.3	0.592676	0.592197	0.0179145	12	0.0781909	11	0	28.4663	1.06089e-05
2	1	0	0	0	1	1373.18	0.6571	0.656692	0.118532	12	0.0788265	11	0	41.351	7.78391e-05
2	1	0	1	0	1	1385.81	0.679773	0.679331	0.23696	12	0.0826951	11	0	53.9764	0.000160974
2	1	0	1	0	1	1398.69	0.615349	0.614912	0.0102945	12	0.083718	11	0	66.8611	6.33022e-06
2	0	0	0	0	1	1411.58	0.550926	0.550438	-0.0102936	12	0.083685	11	0	8.0904	-5.66597e-06
2	1	0	1	0	1	1424.46	0.486503	0.48602	-0.0103614	12	0.0835575	11	0	20.9751	-5.03586e-06
2	1	0	1	0	0	1437.11	0.476813	0.476363	0.0115174	13	0.0835412	11	0	5.3487	5.48645e-06
2	1	0	1	0	0	1450	0.541238	0.540777	0.0156221	13	0.0837143	11	0	18.2335	8.44809e-06
2	1	0	1	0	0	1462.88	0.605661	0.605225	0.0228711	13	0.0839313	11	0	31.1182	1.38422e-05
2	1	0	1	0	0	1475.77	0.670084	0.669615	0.18275	13	0.0848822	11	0	44.0029	0.000122372
2	1	0	1	0	0	1488.39	0.666788	0.666355	0.135423	13	0.0887954	11	0	56.6283	9.02399e-05
2	0	0	1	0	0	1501.28	0.602365	0.60184	0.000457285	13	0.0893556	11	0	69.513	2.75213e-07
2	0	0	1	0	0	1514.16	0.537942	0.537479	-0.0107215	13	0.0892856	11	0	10.9869	-5.7626e-06
2	0	0	1	0	0	1527.05	0.473517	0.4731	-0.0119874	13	0.0891523	11	0	23.8717	-5.67123e-06
2	1	0	1	0	1	1539.7	0.489799	0.489355	0.0138371	14	0.0892005	11	0	7.9457	6.77126e-06
2	1	0	0	0	1	1552.59	0.554222	0.553757	0.0143471	14	0.0893749	11	0	20.8304	7.94477e-06
2	1	0	1	0	1	1565.47	0.618645	0.618185	0.0312268	14	0.0896291	11	0	33.7151	1.93039e-05
2	1	0	1	0	1	1578.36	0.68307	0.682657	0.294032	14	0.0911002	11	0	46.5999	0.000200723
2	1	0	0	0	1	1590.98	0.653804	0.653414	0.075491	14	0.0946209	11	0	59.2252	4.93269e-05
2	1	0	1	0	1	1603.87	0.58938	0.588931	-0.00107959	14	0.0948988	11	0	0.6991	-6.35805e-07
2	1	0	1	0	1	1616.75	0.524956	0.524509	-0.00766556	14	0.094806	11	0	13.5839	-4.02066e-06
2	0	0	1	0	1	1629.64	0.460533	0.460089	-0.0136821	14	0.0946682	11	0	26.4686	-6.29497e-06
2	1	0	1	0	0	1642.29	0.502783	0.502306	0.0133326	15	0.0947823	11	0	10.5426	6.69703e-06
2	1	0	1	0	0	1655.17	0.567206	0.566763	0.0157426	15	0.0949589	11	0	23.4273	8.9223e-06
2	1	0	0	0	0	1668.06	0.63163	0.631185	0.048702	15	0.0952758	11	0	36.312	3.074e-05
2	1	0	0	0	0	1680.94	0.696054	0.695612	0.456466	15	0.0975717	11	0	49.1968	0.000317523
2	1	0	1	0	0	1693.57	0.64082	0.640381	0.0387278	15	0.100205	11	0	61.8221	2.48005e-05
2	1	0	1	0	0	1706.45	0.576395	0.576	-0.00311061	15	0.100315	11	0	2.9965	-1.79171e-06
2	1	0	0	0	0	1719.34	0.511972	0.51152	-0.00831298	15	0.100207	11	0	15.8812	-4.25226e-06
2	0	0	0	0	0	1731.73	0.450021	0.449592	-0.0227627	15	0.100069	11	0	28.2706	-1.02339e-05

File: 20251112_2-148_004_Na_first_2_Na2_01_CVA_C02.mpt
EC-Lab ASCII FILE
Nb header lines : 66

Cyclic Voltammetry Advanced

Run on channel : 2 (SN 69290)
User :
CE vs. WE compliance from -10 V to 10 V
Electrode connection : standard
Potential control : Ewe
Ewe ctrl range : min = -1.00 V, max = 1.00 V
Safety Limits :
	Do not start on E overload
Acquisition started on : 11/12/2025 17:10:29.402
Loaded Setting File :  C:\Users\User\Documents\EC-Lab\Data\Yatsuzuka\20251112_2-148_alpha_reproducibility\20251112_2-148_002_alpha_reproducibility_2_K1.mps
Saved on :
	File : 20251112_2-148_004_Na_first_2_Na2_01_CVA_C02.mpr
	Directory : C:\Users\User\Documents\EC-Lab\Data\Yatsuzuka\20251112_2-148_alpha_reproducibility\
	Host : 192.109.209.127
Device : SP-150e (SN .003883)
Address : 192.109.209.128
EC-Lab for windows v11.52 (software)
Internet server v11.52 (firmware)
Command interpretor v11.50 (firmware)
Electrode material :
Initial state :
Electrolyte :
Comments :
Electrode surface area : 0.001 cm2
Characteristic mass : 0.001 g
Equivalent Weight : 0.000 g/eq.
Density : 0.000 g/cm3
Volume (V) : 0.001 cm3
Cycle Definition : Charge/Discharge alternance
Ei (V)              0.350
vs.                 Ref
ti (h:m:s)          0:00:10.0000
dti (s)             0.0000
dE/dt               10.000
dE/dt unit          mV/s
E1 (V)              0.450
vs.                 Ref
t1 (h:m:s)          0:00:0.0000
dt1 (s)             0.1000
Step percent        50
N                   10
E range min (V)     -1.000
E range max (V)     1.000
I Range             Auto
I Range min         Unset
I Range max         Unset
I Range init        Unset
Bandwidth           5
E2 (V)              0.350
vs.                 Ref
t2 (h:m:s)          0:00:0.0000
dt2 (s)             0.1000
nc cycles           9
nr                  1
Reverse Scan        0
Ef (V)              0.000
vs.                 Eoc
tf (h:m:s)          0:00:0.0000
dtf (s)             0.1000

mode	ox/red	error	control changes	Ns changes	counter inc.	time/s	control/V	Ewe/V	<I>/mA	cycle number	(Q-Qo)/C	I Range	Ns	step time/s	P/W
2	1	0	0	0	0	0.000000000000000E+000	0.349989	0.349438	0.0156362	1	0.0000000E+000	13	0	0.000000000000000E+000	5.46387e-06
2	1	0	1	0	0	1.7255	0.367244	0.366805	0.0283485	1	5.4836e-05	13	0	1.698	1.03984e-05
2	1	0	1	0	0	3.4735	0.384723	0.384269	0.0282974	1	0.000109026	13	0	3.446	1.08738e-05
2	1	0	1	0	0	5.2214	0.402202	0.401768	0.0344631	1	0.000160133	13	0	5.1939	1.38462e-05
2	1	0	1	0	0	6.9693	0.419681	0.41921	0.03035	1	0.000208426	13	0	6.9418	1.2723e-05
2	1	0	1	0	0	8.7173	0.437161	0.436685	0.0352921	1	0.00025445	13	0	8.6898	1.54115e-05
2	0	0	1	0	0	10.4409	0.445601	0.445105	-0.0207276	1	0.000279279	13	0	0.4145	-9.22599e-06
2	0	0	1	0	0	12.1889	0.428121	0.42764	-0.0208506	1	0.000238983	13	0	2.1625	-8.91657e-06
2	0	0	1	0	0	13.9368	0.410642	0.410145	-0.0181711	1	0.0001946	13	0	3.9104	-7.4528e-06
2	0	0	1	0	0	15.6847	0.393163	0.392674	-0.0245312	1	0.000146461	13	0	5.6583	-9.63277e-06
2	0	0	1	0	0	17.4327	0.375684	0.375227	-0.0399747	1	9.41324e-05	13	0	7.4063	-1.49996e-05
2	0	0	1	0	0	19.1806	0.358203	0.357698	-0.0423801	1	3.67846e-05	13	0	9.1542	-1.51593e-05
2	1	0	1	0	1	20.8901	0.358903	0.358411	0.0414923	2	3.31629e-05	13	0	0.794	1.48713e-05
2	1	0	1	0	1	22.6381	0.376383	0.375916	0.0372005	2	8.72112e-05	13	0	2.542	1.39842e-05
2	1	0	1	0	1	24.386	0.393862	0.393412	0.037761	2	0.000138863	13	0	4.2899	1.48556e-05
2	1	0	1	0	1	26.1339	0.411341	0.41089	0.0367848	2	0.000187899	13	0	6.0378	1.51145e-05
2	1	0	1	0	1	27.8819	0.428821	0.428383	0.0350155	2	0.000234705	13	0	7.7858	1.50001e-05
2	1	0	1	0	1	29.6298	0.446301	0.445818	0.0332837	2	0.000279661	13	0	9.5337	1.48385e-05
2	0	0	1	0	1	31.3834	0.436162	0.435696	-0.0138144	2	0.000259425	13	0	1.3434	-6.01889e-06
2	0	0	1	0	1	33.1313	0.418683	0.418227	-0.0249907	2	0.000216629	13	0	3.0913	-1.04518e-05
2	0	0	1	0	1	34.8793	0.401203	0.400726	-0.0372352	2	0.00017026	13	0	4.8393	-1.49211e-05
2	0	0	1	0	1	36.6272	0.383724	0.383279	-0.0284535	2	0.000119938	13	0	6.5872	-1.09057e-05
2	0	0	1	0	1	38.3751	0.366245	0.365765	-0.0228666	2	6.499e-05	13	0	8.3351	-8.36378e-06
2	0	0	1	0	0	40.0297	0.350314	0.349879	0.0127603	3	9.0131e-06	13	0	0.000000000000000E+000	4.46456e-06
2	1	0	1	0	0	41.8376	0.368392	0.367991	0.0284393	3	6.36283e-05	13	0	1.8079	1.04654e-05
2	1	0	1	0	0	43.5855	0.385871	0.385413	0.0284725	3	0.000116557	13	0	3.5558	1.09737e-05
2	1	0	1	0	0	45.3335	0.403351	0.402954	0.0331462	3	0.000166677	13	0	5.3038	1.33564e-05
2	1	0	1	0	0	47.0814	0.42083	0.420385	0.0174266	3	0.000214375	13	0	7.0517	7.32587e-06
2	1	0	1	0	0	48.8293	0.438309	0.437892	0.0309383	3	0.000260101	13	0	8.7996	1.35476e-05
2	0	0	1	0	0	50.5829	0.444152	0.443646	-0.0149228	3	0.000278277	13	0	0.5443	-6.62044e-06
2	0	0	1	0	0	52.3309	0.426673	0.426203	-0.0279564	3	0.000237343	13	0	2.2923	-1.19151e-05
2	0	0	1	0	0	54.0788	0.409195	0.408691	-0.0349611	3	0.000192712	13	0	4.0402	-1.42883e-05
2	0	0	1	0	0	55.8267	0.391715	0.391322	-0.0225703	3	0.000144265	13	0	5.7881	-8.83228e-06
2	0	0	1	0	0	57.5747	0.374235	0.373737	-0.0386255	3	9.17301e-05	13	0	7.5361	-1.44358e-05
2	0	0	1	0	0	59.3226	0.356756	0.356353	-0.0322904	3	3.39543e-05	13	0	9.284	-1.15068e-05
2	1	0	1	0	1	61.0371	0.360402	0.359967	0.0224334	4	4.07195e-05	13	0	1.0088	8.07529e-06
2	1	0	1	0	1	62.7851	0.377881	0.377478	0.0392565	4	9.44532e-05	13	0	2.7568	1.48185e-05
2	1	0	1	0	1	64.533	0.39536	0.394907	0.0219162	4	0.000145724	13	0	4.5047	8.65485e-06
2	1	0	1	0	1	66.2809	0.41284	0.412366	0.0181382	4	0.000194391	13	0	6.2526	7.47958e-06
2	1	0	1	0	1	68.0289	0.430319	0.429881	0.0353293	4	0.000240996	13	0	8.0006	1.51874e-05
2	1	0	1	0	1	69.7768	0.447798	0.447386	0.0227956	4	0.000285676	13	0	9.7485	1.01984e-05
2	0	0	1	0	1	71.5305	0.434664	0.434107	-0.0223095	4	0.000258504	13	0	1.4933	-9.68469e-06
2	0	0	1	0	1	73.2783	0.417184	0.416694	-0.0270645	4	0.000215315	13	0	3.2411	-1.12776e-05
2	0	0	1	0	1	75.0263	0.399705	0.399239	-0.0366956	4	0.000168771	13	0	4.9891	-1.46503e-05
2	0	0	1	0	1	76.7742	0.382227	0.381816	-0.0223185	4	0.000118156	13	0	6.737	-8.52158e-06
2	0	0	1	0	1	78.5221	0.364747	0.364272	-0.0423438	4	6.29394e-05	13	0	8.4849	-1.54247e-05
2	1	0	1	0	0	80.2217	0.352261	0.351819	0.029395	5	1.67639e-05	12	0	0.1948	1.03417e-05
2	1	0	1	0	0	81.9847	0.36989	0.369525	0.026356	5	7.12083e-05	13	0	1.9578	9.73918e-06
2	1	0	1	0	0	83.7325	0.38737	0.386918	0.0283301	5	0.00012371	13	0	3.7056	1.09614e-05
2	1	0	1	0	0	85.4805	0.404849	0.404432	0.0285725	5	0.000173553	13	0	5.4536	1.15556e-05
2	1	0	1	0	0	87.2284	0.422327	0.42191	0.0263282	5	0.00022102	13	0	7.2015	1.11081e-05
2	1	0	1	0	0	88.9763	0.439808	0.439373	0.030242	5	0.000266433	13	0	8.9494	1.32875e-05
2	0	0	1	0	0	90.73	0.442653	0.442172	-0.0253172	5	0.00027806	13	0	0.6293	-1.11945e-05
2	0	0	1	0	0	92.4779	0.425175	0.42469	-0.0180847	5	0.000236773	13	0	2.3772	-7.68039e-06
2	0	0	1	0	0	94.2259	0.407696	0.407166	-0.0357961	5	0.000191735	13	0	4.1252	-1.45749e-05
2	0	0	1	0	0	95.9737	0.390216	0.389751	-0.0234444	5	0.000143086	13	0	5.873	-9.13747e-06
2	0	0	1	0	0	97.7217	0.372737	0.372264	-0.0219049	5	9.01296e-05	13	0	7.621	-8.15439e-06
2	0	0	1	0	0	99.4696	0.355259	0.354807	-0.0375493	5	3.2104e-05	13	0	9.3689	-1.33228e-05
2	1	0	1	0	1	101.184	0.361901	0.361492	0.0341205	6	4.82847e-05	13	0	1.1587	1.23343e-05
2	1	0	1	0	1	102.932	0.379379	0.378934	0.0201638	6	0.000101824	13	0	2.9066	7.64076e-06
2	1	0	1	0	1	104.68	0.396858	0.396455	0.0367436	6	0.000152807	13	0	4.6546	1.45672e-05
[...]
2	0	0	1	0	0	130.877	0.441156	0.440671	-0.0190146	7	0.000275978	13	0	0.844	-8.3792e-06
2	0	0	1	0	0	132.625	0.423677	0.423169	-0.0257399	7	0.000234473	13	0	2.5919	-1.08923e-05
2	0	0	1	0	0	134.373	0.406197	0.405767	-0.0305968	7	0.000189191	13	0	4.3399	-1.24152e-05
2	0	0	1	0	0	136.121	0.388718	0.388265	-0.0221956	7	0.000140267	13	0	6.0878	-8.61775e-06
2	0	0	1	0	0	137.869	0.371239	0.370773	-0.0408537	7	8.7052e-05	13	0	7.8357	-1.51475e-05
2	0	0	1	0	0	139.617	0.35376	0.353231	-0.0257414	7	2.86483e-05	13	0	9.5837	-9.09265e-06
2	1	0	1	0	1	141.331	0.363398	0.362988	0.0391674	8	5.50388e-05	13	0	1.3085	1.42173e-05
2	1	0	1	0	1	143.079	0.380877	0.380452	0.0204186	8	0.000108291	13	0	3.0564	7.7683e-06
2	1	0	1	0	1	144.827	0.398357	0.397939	0.0376059	8	0.000158926	13	0	4.8044	1.49649e-05
2	1	0	1	0	1	146.575	0.415836	0.415424	0.0183584	8	0.000207033	13	0	6.5523	7.62651e-06
2	1	0	1	0	1	148.323	0.433315	0.432842	0.0331321	8	0.000253029	13	0	8.3002	1.4341e-05
2	1	0	1	0	1	150.032	0.449596	0.449089	-0.0133692	8	0.000295172	13	0	0.000000000000000E+000	-6.00397e-06
2	0	0	1	0	1	151.824	0.431667	0.431175	-0.0318011	8	0.000255183	13	0	1.7929	-1.37118e-05
2	0	0	1	0	1	153.572	0.414188	0.413677	-0.0237552	8	0.000211578	13	0	3.5408	-9.82697e-06
2	0	0	1	0	1	155.32	0.396709	0.396281	-0.0206727	8	0.000164446	13	0	5.2887	-8.19219e-06
2	0	0	1	0	1	157.068	0.379229	0.378779	-0.0404023	8	0.000113359	13	0	7.0367	-1.53036e-05
2	0	0	1	0	1	158.816	0.36175	0.361256	-0.0393328	8	5.75403e-05	13	0	8.7846	-1.42092e-05
2	1	0	1	0	0	160.531	0.355408	0.354948	0.0203047	9	3.07369e-05	13	0	0.5094	7.20712e-06
2	1	0	1	0	0	162.279	0.372887	0.372447	0.0385517	9	8.45515e-05	13	0	2.2574	1.43585e-05
2	1	0	1	0	0	164.027	0.390366	0.389931	0.0208607	9	0.000136447	13	0	4.0053	8.13421e-06
2	1	0	1	0	0	165.774	0.407845	0.407363	0.0342451	9	0.00018562	13	0	5.7532	1.39502e-05
2	1	0	1	0	0	167.522	0.425325	0.424887	0.0186356	9	0.000232564	13	0	7.5012	7.91804e-06
2	1	0	1	0	0	169.27	0.442804	0.442383	0.0339383	9	0.000277682	13	0	9.2491	1.50137e-05
2	0	0	1	0	0	171.024	0.439658	0.439163	-0.0291952	9	0.000274817	13	0	0.9939	-1.28215e-05
2	0	0	1	0	0	172.772	0.422178	0.421717	-0.0178528	9	0.000232891	13	0	2.7417	-7.52884e-06
2	0	0	1	0	0	174.52	0.404699	0.404215	-0.0345185	9	0.000187509	13	0	4.4897	-1.39529e-05
2	0	0	1	0	0	176.268	0.38722	0.386796	-0.0200334	9	0.00013826	13	0	6.2376	-7.74885e-06
2	0	0	1	0	0	178.016	0.369741	0.369292	-0.0418827	9	8.47382e-05	13	0	7.9855	-1.54669e-05
2	0	0	1	0	0	179.764	0.352261	0.351838	-0.0279572	9	2.59335e-05	13	0	9.7335	-9.83638e-06
2	1	0	1	0	1	181.478	0.364895	0.364471	0.0396404	10	6.10625e-05	13	0	1.4583	1.44478e-05
2	1	0	1	0	1	183.226	0.382376	0.381946	0.0222438	10	0.000114062	13	0	3.2062	8.49595e-06
2	1	0	1	0	1	184.974	0.399855	0.399423	0.0325414	10	0.00016437	13	0	4.9542	1.29978e-05
2	1	0	1	0	1	186.722	0.417334	0.416902	0.031387	10	0.000212327	13	0	6.7021	1.30853e-05
2	1	0	1	0	1	188.47	0.434813	0.43437	0.0165585	10	0.000258113	13	0	8.45	7.19254e-06
2	0	0	1	0	1	190.224	0.447647	0.447194	-0.0175576	10	0.000292218	13	0	0.1948	-7.85167e-06
2	0	0	1	0	1	191.971	0.430169	0.429654	-0.0222642	10	0.000252583	13	0	1.9427	-9.56591e-06
2	0	0	1	0	1	193.719	0.41269	0.412214	-0.0326823	10	0.000208627	13	0	3.6907	-1.34721e-05
2	0	0	1	0	1	195.467	0.39521	0.394705	-0.0194165	10	0.000161255	13	0	5.4385	-7.66381e-06
2	0	0	1	0	1	197.215	0.377731	0.377254	-0.0316468	10	0.000109856	13	0	7.1865	-1.19389e-05
2	0	0	1	0	1	198.963	0.360253	0.359785	-0.0303897	10	5.3654e-05	13	0	8.9344	-1.09337e-05
2	0	0	0	0	1	199.986	0.349989	0.349553	-0.0583281	10	1.80746e-05	13	0	9.9572	-2.03887e-05