Folder: SI_for_publications/ACS_Catal_2026/Figures_Na_K/main_figures/data/EC/20251112_2-148_alpha_reproducibility (part 37)

File: 20251112_2-148_006_gamma_reproducibility_2_Na2_03_CVA_C02.mpt
EC-Lab ASCII FILE
Nb header lines : 66

Cyclic Voltammetry Advanced

Run on channel : 2 (SN 69290)
User :
CE vs. WE compliance from -10 V to 10 V
Electrode connection : standard
Potential control : Ewe
Ewe ctrl range : min = -1.00 V, max = 1.00 V
Safety Limits :
	Do not start on E overload
Acquisition started on : 11/12/2025 21:00:04.183
Loaded Setting File :  C:\Users\User\Documents\EC-Lab\Data\Yatsuzuka\20251112_2-148_alpha_reproducibility\20251112_2-148_002_alpha_reproducibility_2_K1.mps
Saved on :
	File : 20251112_2-148_006_gamma_reproducibility_2_Na2_r_03_CVA_C02.mpr
	Directory : C:\Users\User\Documents\EC-Lab\Data\Yatsuzuka\20251112_2-148_alpha_reproducibility\
	Host : 192.109.209.127
Device : SP-150e (SN .003883)
Address : 192.109.209.128
EC-Lab for windows v11.52 (software)
Internet server v11.52 (firmware)
Command interpretor v11.50 (firmware)
Electrode material :
Initial state :
Electrolyte :
Comments :
Electrode surface area : 0.001 cm2
Characteristic mass : 0.001 g
Equivalent Weight : 0.000 g/eq.
Density : 0.000 g/cm3
Volume (V) : 0.001 cm3
Cycle Definition : Charge/Discharge alternance
Ei (V)              0.450
vs.                 Ref
ti (h:m:s)          0:00:10.0000
dti (s)             0.0000
dE/dt               5.000
dE/dt unit          mV/s
E1 (V)              0.700
vs.                 Ref
t1 (h:m:s)          0:00:0.0000
dt1 (s)             0.1000
Step percent        50
N                   10
E range min (V)     -1.000
E range max (V)     1.000
I Range             10 mA
I Range min         Unset
I Range max         Unset
I Range init        Unset
Bandwidth           5
E2 (V)              0.450
vs.                 Ref
t2 (h:m:s)          0:00:0.0000
dt2 (s)             0.1000
nc cycles           14
nr                  1
Reverse Scan        0
Ef (V)              0.000
vs.                 Eoc
tf (h:m:s)          0:00:0.0000
dtf (s)             0.1000

mode	ox/red	error	control changes	Ns changes	counter inc.	time/s	control/V	Ewe/V	<I>/mA	cycle number	(Q-Qo)/C	I Range	Ns	step time/s	P/W
2	1	0	1	0	0	232.278	0.450021	0.449535	0.00296052	1	0.0000000E+000	11	0	0.000000000000000E+000	1.33086e-06
2	1	0	1	0	0	245.618	0.516717	0.516277	0.00312736	1	4.44513e-05	11	0	13.2843	1.61458e-06
2	0	0	1	0	0	259.002	0.583637	0.583201	0.00336221	1	8.9796e-05	11	0	26.6684	1.96085e-06
2	1	0	1	0	0	272.386	0.650557	0.650124	0.010196	1	0.000159702	11	0	40.0525	6.62869e-06
2	1	0	1	0	0	285.521	0.683768	0.68336	0.0417355	1	0.000725072	11	0	53.1873	2.85203e-05
2	1	0	0	0	0	298.905	0.616848	0.616386	0.00128838	1	0.000879792	11	0	66.5714	7.94142e-07
2	0	0	1	0	0	312.289	0.549927	0.54946	0.000170163	1	0.000886268	11	0	0.000000000000000E+000	9.34979e-08
2	1	0	1	0	0	325.673	0.483006	0.482519	8.57508e-05	1	0.000886298	11	0	0.000000000000000E+000	4.13764e-08
2	1	0	1	0	1	338.827	0.482806	0.482339	0.00288223	2	0.000903638	11	0	6.5473	1.39021e-06
2	1	0	1	0	1	352.211	0.549728	0.549305	0.00281509	2	0.000942178	11	0	19.9315	1.54634e-06
2	1	0	0	0	1	365.595	0.616648	0.616229	0.00373815	2	0.000983797	11	0	33.3156	2.30356e-06
2	1	0	1	0	1	378.979	0.683568	0.683123	0.0418181	2	0.00116337	11	0	46.6997	2.85669e-05
2	1	0	1	0	1	392.104	0.650807	0.650335	0.00683168	2	0.00168681	11	0	59.8245	4.44288e-06
2	1	0	1	0	1	405.488	0.583887	0.583438	0.000462941	2	0.00171105	11	0	73.2086	2.70097e-07
2	1	0	0	0	1	418.872	0.516966	0.516505	0.00019761	2	0.00171238	11	0	0.0999	1.02066e-07
2	1	0	1	0	1	432.231	0.45017	0.449728	0.000806219	2	0.00171009	11	0	0.000000000000000E+000	3.62579e-07
2	1	0	1	0	0	445.41	0.515768	0.515285	0.00250533	3	0.00174742	11	0	13.1395	1.29096e-06
2	1	0	0	0	0	458.794	0.582688	0.582256	0.00269698	3	0.00178577	11	0	26.5236	1.57033e-06
2	1	0	1	0	0	472.178	0.649609	0.649171	0.00858105	3	0.00184318	11	0	39.9078	5.57056e-06
2	1	0	1	0	0	485.303	0.684768	0.684348	0.0410818	3	0.0023627	11	0	53.0325	2.81142e-05
2	1	0	1	0	0	498.687	0.617846	0.617371	0.00121619	3	0.00251301	11	0	66.4167	7.50838e-07
2	0	0	0	0	0	512.071	0.550926	0.550489	0.00014956	3	0.00251871	11	0	0.0999	8.23311e-08
2	1	0	1	0	0	525.455	0.484005	0.483576	0.000117919	3	0.0025184	11	0	0.000000000000000E+000	5.70228e-08
2	1	0	1	0	1	538.609	0.481807	0.481357	0.00265896	4	0.0025345	11	0	6.3575	1.27991e-06
2	1	0	1	0	1	551.993	0.548729	0.548279	0.00268383	4	0.00257239	11	0	19.7417	1.47149e-06
2	0	0	1	0	1	565.377	0.615649	0.615218	0.00333234	4	0.00261285	11	0	33.1258	2.05012e-06
2	1	0	0	0	1	578.761	0.68257	0.682163	0.0383359	4	0.00277655	11	0	46.51	2.61513e-05
2	1	0	1	0	1	591.886	0.651807	0.651364	0.00678649	4	0.00328554	11	0	59.6347	4.42047e-06
2	0	0	1	0	1	605.27	0.584885	0.584438	0.000313214	4	0.00330981	11	0	73.0189	1.83055e-07
2	1	0	1	0	1	618.654	0.517965	0.517512	0.000270973	4	0.0033114	11	0	0.000000000000000E+000	1.40231e-07
2	0	0	1	0	1	632.038	0.451045	0.450566	-0.000301986	4	0.00330948	11	0	0.0998	-1.36064e-07
2	1	0	1	0	0	645.192	0.514768	0.514346	0.00251	5	0.00334547	11	0	12.9397	1.29101e-06
2	1	0	1	0	0	658.576	0.58169	0.581262	0.00269262	5	0.00338297	11	0	26.3239	1.56512e-06
2	1	0	0	0	0	671.96	0.64861	0.648171	0.00794183	5	0.00343732	11	0	39.708	5.14766e-06
2	1	0	0	0	0	685.085	0.685766	0.685316	0.0416418	5	0.00393309	11	0	52.8328	2.85378e-05
2	1	0	1	0	0	698.469	0.618846	0.61842	0.00130976	5	0.00408561	11	0	66.2169	8.0998e-07
2	1	0	1	0	0	711.853	0.551924	0.55148	0.000275489	5	0.00409121	11	0	0.000000000000000E+000	1.51927e-07
2	1	0	0	0	0	725.238	0.485004	0.484572	-0.00015824	5	0.00409132	11	0	0.0999	-7.66786e-08
2	1	0	1	0	1	738.391	0.480809	0.480359	0.00279768	6	0.00410717	11	0	6.1478	1.34389e-06
2	0	0	1	0	1	751.775	0.547729	0.54729	0.00248092	6	0.00414461	11	0	19.5319	1.35778e-06
2	1	0	1	0	1	765.159	0.614651	0.61424	0.00339048	6	0.00418389	11	0	32.9161	2.08257e-06
2	1	0	1	0	1	778.544	0.681571	0.681098	0.0355375	6	0.00433563	11	0	46.3002	2.42045e-05
2	1	0	1	0	1	791.668	0.652805	0.65238	0.00697774	6	0.00483738	11	0	59.425	4.55214e-06
2	1	0	1	0	1	805.052	0.585884	0.585387	0.000378719	6	0.00486161	11	0	72.8091	2.21697e-07
2	1	0	0	0	1	818.437	0.518964	0.51851	0.000317069	6	0.00486333	11	0	0.000000000000000E+000	1.64403e-07
2	1	0	1	0	1	831.821	0.452043	0.451583	9.38333e-06	6	0.00486158	11	0	0.1998	4.23735e-09
2	1	0	0	0	0	844.974	0.51377	0.513339	0.00269937	7	0.00489705	11	0	12.75	1.38569e-06
2	0	0	1	0	0	858.358	0.58069	0.580281	0.00266126	7	0.00493422	11	0	26.1341	1.54428e-06
2	1	0	1	0	0	871.743	0.647611	0.647139	0.00709994	7	0.00498625	11	0	39.5182	4.59465e-06
2	1	0	1	0	0	884.867	0.686765	0.686335	0.0429456	7	0.00546532	11	0	52.643	2.94751e-05
2	1	0	0	0	0	898.252	0.619844	0.61942	0.00135118	7	0.00562195	11	0	66.0272	8.36947e-07
2	1	0	1	0	0	911.636	0.552923	0.552442	0.000120041	7	0.00562801	11	0	0.2996	6.63157e-08
2	1	0	1	0	0	925.02	0.486003	0.48557	0.000108206	7	0.0056282	11	0	0.000000000000000E+000	5.25415e-08
2	1	0	0	0	1	938.173	0.47981	0.479453	0.00281932	8	0.00564329	11	0	5.948	1.35173e-06
2	1	0	1	0	1	951.558	0.546731	0.546274	0.00283756	8	0.00568072	11	0	19.3322	1.55009e-06
2	1	0	1	0	1	964.942	0.613651	0.613237	0.00342105	8	0.00572026	11	0	32.7163	2.09792e-06
2	1	0	0	0	1	978.326	0.680572	0.680161	0.0335255	8	0.00586384	11	0	46.1004	2.28027e-05
2	1	0	0	0	1	991.451	0.653804	0.653355	0.00719143	8	0.0063663	11	0	59.2252	4.69855e-06
2	1	0	1	0	1	1004.83	0.586884	0.586386	0.000428868	8	0.00639191	11	0	72.6093	2.51482e-07
[...]
2	1	0	0	0	1	1204.62	0.587882	0.587393	0.000510119	10	0.00790939	11	0	72.4096	2.99641e-07
2	1	0	1	0	1	1218	0.520961	0.520505	0.000271265	10	0.00791176	11	0	0.000000000000000E+000	1.41195e-07
2	1	0	1	0	1	1231.39	0.45404	0.45359	-3.01564e-05	10	0.00791042	11	0	0.000000000000000E+000	-1.36787e-08
2	1	0	0	0	0	1244.54	0.511772	0.511333	0.00272696	11	0.00794396	11	0	12.3404	1.39439e-06
2	1	0	1	0	0	1257.92	0.578693	0.578259	0.00276236	11	0.00798067	11	0	25.7246	1.59736e-06
2	1	0	1	0	0	1271.31	0.645613	0.645185	0.00640863	11	0.00802993	11	0	39.1087	4.13475e-06
2	1	0	1	0	0	1284.43	0.688762	0.688351	0.0466689	11	0.00848658	11	0	52.2335	3.21246e-05
2	1	0	0	0	0	1297.82	0.621842	0.621368	0.00130004	11	0.0086578	11	0	65.6176	8.07802e-07
2	1	0	1	0	0	1311.2	0.554921	0.554498	0.000567882	11	0.0086643	11	0	0.0999	3.1489e-07
2	0	0	1	0	0	1324.58	0.488	0.487531	5.2684e-05	11	0.00866508	11	0	0.1998	2.56851e-08
2	1	0	1	0	1	1337.74	0.477812	0.477352	0.0027284	12	0.00867913	11	0	5.5485	1.30241e-06
2	1	0	1	0	1	1351.12	0.544733	0.544328	0.00275265	12	0.00871617	11	0	18.9326	1.49835e-06
2	1	0	0	0	1	1364.51	0.611654	0.611222	0.0032773	12	0.00875479	11	0	32.3168	2.00316e-06
2	1	0	1	0	1	1377.89	0.678574	0.678116	0.0297273	12	0.00888317	11	0	45.7009	2.01586e-05
2	1	0	1	0	1	1391.02	0.655801	0.655374	0.00800268	12	0.0093884	11	0	58.8257	5.24474e-06
2	1	0	1	0	1	1404.4	0.588881	0.588419	0.000480538	12	0.00941517	11	0	72.2098	2.82758e-07
2	1	0	0	0	1	1417.78	0.52196	0.521478	0.000185174	12	0.00941722	11	0	0.1998	9.65644e-08
2	1	0	1	0	1	1431.17	0.455039	0.454549	-0.000360756	12	0.00941574	11	0	0.000000000000000E+000	-1.63981e-07
2	1	0	1	0	0	1444.32	0.510773	0.510301	0.00242453	13	0.00944848	11	0	12.0857	1.23724e-06
2	1	0	0	0	0	1457.71	0.577694	0.577255	0.0025436	13	0.00948498	11	0	25.4698	1.4683e-06
2	1	0	1	0	0	1471.09	0.644615	0.6442	0.00628598	13	0.00953316	11	0	38.854	4.04943e-06
2	1	0	1	0	0	1484.21	0.689761	0.689291	0.0489725	13	0.0099809	11	0	51.9787	3.37563e-05
2	1	0	1	0	0	1497.6	0.62284	0.622453	0.00131746	13	0.010161	11	0	65.3629	8.20058e-07
2	0	0	0	0	0	1510.98	0.55592	0.555505	0.000215932	13	0.0101669	11	0	0.0999	1.19951e-07
2	1	0	1	0	0	1524.37	0.489	0.488518	-0.000153923	13	0.0101672	11	0	0.0998	-7.51941e-08
2	1	0	1	0	1	1537.52	0.476813	0.476385	0.00266585	14	0.0101795	11	0	5.3587	1.26997e-06
2	1	0	1	0	1	1550.9	0.543735	0.543321	0.00259501	14	0.0102153	11	0	18.7429	1.40992e-06
2	0	0	1	0	1	1564.29	0.610655	0.610238	0.00286082	14	0.0102524	11	0	32.127	1.74578e-06
2	1	0	1	0	1	1577.67	0.677575	0.677157	0.0281723	14	0.0103736	11	0	45.5111	1.90771e-05
2	1	0	1	0	1	1590.8	0.6568	0.656351	0.00828248	14	0.0108836	11	0	58.6359	5.43621e-06
2	1	0	1	0	1	1604.18	0.589879	0.589376	0.000303984	14	0.0109113	11	0	72.0201	1.79161e-07
2	1	0	1	0	1	1617.57	0.522959	0.522467	1.16644e-05	14	0.010913	11	0	0.0999	6.09427e-09
2	0	0	1	0	1	1630.95	0.456039	0.455618	-0.000137255	14	0.0109111	11	0	0.000000000000000E+000	-6.25358e-08
2	1	0	1	0	0	1644.1	0.509774	0.509317	0.00262998	15	0.0109422	11	0	11.9409	1.33949e-06
2	1	0	1	0	0	1657.49	0.576696	0.576239	0.00251391	15	0.0109779	11	0	25.3251	1.44861e-06
2	1	0	0	0	0	1670.87	0.643616	0.643158	0.00599327	15	0.0110244	11	0	38.7092	3.85462e-06
2	1	0	0	0	0	1684	0.69076	0.690325	0.0516428	15	0.0114642	11	0	51.834	3.56503e-05
2	1	0	1	0	0	1697.38	0.623839	0.623453	0.00144478	15	0.0116533	11	0	65.2181	9.00752e-07
2	1	0	1	0	0	1710.76	0.556919	0.55645	9.83474e-05	15	0.011659	11	0	0.000000000000000E+000	5.47254e-08
2	0	0	0	0	0	1724.15	0.489998	0.489564	-0.00016214	15	0.0116589	11	0	0.0999	-7.93778e-08
2	1	0	0	0	0	1732.14	0.450021	0.449649	-0.000749071	15	0.0116574	11	0	0.029	-3.36819e-07

File: 20251112_2-148_006_gamma_reproducibility_2_Na2_stopped_01_CVA_C02.mpt
EC-Lab ASCII FILE
Nb header lines : 66

Cyclic Voltammetry Advanced

Run on channel : 2 (SN 69290)
User :
CE vs. WE compliance from -10 V to 10 V
Electrode connection : standard
Potential control : Ewe
Ewe ctrl range : min = -1.00 V, max = 1.00 V
Safety Limits :
	Do not start on E overload
Acquisition started on : 11/12/2025 20:59:02.055
Loaded Setting File :  C:\Users\User\Documents\EC-Lab\Data\Yatsuzuka\20251112_2-148_alpha_reproducibility\20251112_2-148_002_alpha_reproducibility_2_K1.mps
Saved on :
	File : 20251112_2-148_006_gamma_reproducibility_2_Na2_01_CVA_C02.mpr
	Directory : C:\Users\User\Documents\EC-Lab\Data\Yatsuzuka\20251112_2-148_alpha_reproducibility\
	Host : 192.109.209.127
Device : SP-150e (SN .003883)
Address : 192.109.209.128
EC-Lab for windows v11.52 (software)
Internet server v11.52 (firmware)
Command interpretor v11.50 (firmware)
Electrode material :
Initial state :
Electrolyte :
Comments :
Electrode surface area : 0.001 cm2
Characteristic mass : 0.001 g
Equivalent Weight : 0.000 g/eq.
Density : 0.000 g/cm3
Volume (V) : 0.001 cm3
Cycle Definition : Charge/Discharge alternance
Ei (V)              0.350
vs.                 Ref
ti (h:m:s)          0:00:10.0000
dti (s)             0.0000
dE/dt               10.000
dE/dt unit          mV/s
E1 (V)              0.450
vs.                 Ref
t1 (h:m:s)          0:00:0.0000
dt1 (s)             0.1000
Step percent        50
N                   10
E range min (V)     -1.000
E range max (V)     1.000
I Range             Auto
I Range min         Unset
I Range max         Unset
I Range init        Unset
Bandwidth           5
E2 (V)              0.350
vs.                 Ref
t2 (h:m:s)          0:00:0.0000
dt2 (s)             0.1000
nc cycles           9
nr                  1
Reverse Scan        0
Ef (V)              0.000
vs.                 Eoc
tf (h:m:s)          0:00:0.0000
dtf (s)             0.1000

mode	ox/red	error	control changes	Ns changes	counter inc.	time/s	control/V	Ewe/V	<I>/mA	cycle number	(Q-Qo)/C	I Range	Ns	step time/s	P/W
2	1	0	1	0	0	0.000000000000000E+000	0.349989	0.352376	23.2962	1	0.0000000E+000	9	0	0.000000000000000E+000	0.00820903
2	1	0	1	0	0	0.2773	0.352761	0.352318	3.62952	1	-6.33459e-05	9	0	0.000000000000000E+000	0.00127874
2	1	0	1	0	0	0.5769	0.355757	0.354847	3.75225	1	3.28965e-06	9	0	0.000000000000000E+000	0.00133148
2	1	0	1	0	0	0.8765	0.358754	0.357928	3.54086	1	0.000118142	9	0	0.2996	0.00126738
2	1	0	1	0	0	1.1762	0.36175	0.361375	3.27036	1	0.000226685	9	0	0.000000000000000E+000	0.00118182
2	1	0	1	0	0	1.4759	0.364747	0.364962	3.12122	1	0.00031996	9	0	0.000000000000000E+000	0.00113913
2	1	0	1	0	0	1.7755	0.367743	0.366826	2.76915	1	0.000424123	9	0	0.000000000000000E+000	0.00101579
2	1	0	1	0	0	2.0751	0.370739	0.369831	2.61899	1	0.000554369	9	0	0.000000000000000E+000	0.000968585
2	1	0	1	0	0	2.3748	0.373737	0.373433	2.11528	1	0.000676876	9	0	0.000000000000000E+000	0.000789917
2	1	0	1	0	0	2.6744	0.376731	0.375572	2.20645	1	0.00084206	9	0	0.000000000000000E+000	0.000828681
2	1	0	1	0	0	2.9741	0.379729	0.379682	1.28754	1	0.00096632	9	0	0.000000000000000E+000	0.000488856
2	1	0	1	0	0	3.2737	0.382725	0.382797	1.41138	1	0.00112463	9	0	0.000000000000000E+000	0.000540272
2	1	0	1	0	0	3.5733	0.385722	0.385684	1.0263	1	0.00126953	9	0	0.000000000000000E+000	0.000395829
2	1	0	1	0	0	3.873	0.388718	0.387538	0.985312	1	0.00142572	9	0	0.000000000000000E+000	0.000381846
2	0	0	1	0	0	4.1727	0.391715	0.390365	0.70132	1	0.0016126	9	0	0.000000000000000E+000	0.000273771
2	0	0	1	0	0	4.4723	0.394711	0.393775	0.351448	1	0.00179968	9	0	0.000000000000000E+000	0.000138391
2	0	0	1	0	0	4.7719	0.397707	0.397125	0.091181	1	0.00199063	9	0	0.000000000000000E+000	3.62103e-05
2	0	0	1	0	0	5.0716	0.400705	0.398679	-0.0300011	1	0.00219342	9	0	0.000000000000000E+000	-1.19608e-05
2	0	0	1	0	0	5.3712	0.403699	0.402783	-0.155732	1	0.00241872	9	0	0.000000000000000E+000	-6.27263e-05
2	0	0	1	0	0	5.6709	0.406697	0.40571	-0.368542	1	0.00266074	9	0	0.000000000000000E+000	-0.000149521
2	0	0	1	0	0	5.9705	0.409693	0.40856	-0.626873	1	0.00289457	9	0	0.000000000000000E+000	-0.000256115
2	0	0	1	0	0	6.2701	0.41269	0.411686	-0.821069	1	0.00315129	9	0	0.000000000000000E+000	-0.000338022
2	0	0	1	0	0	6.5698	0.415686	0.41498	-0.941154	1	0.00342221	9	0	0.000000000000000E+000	-0.00039056
2	0	0	1	0	0	6.8695	0.418683	0.417591	-1.10967	1	0.0037145	9	0	0.000000000000000E+000	-0.000463387
2	0	0	1	0	0	7.1691	0.421679	0.420887	-1.38045	1	0.00400377	9	0	0.000000000000000E+000	-0.000581014
2	0	0	1	0	0	7.4687	0.424675	0.425399	-1.57651	1	0.00432344	9	0	0.000000000000000E+000	-0.000670645
2	0	0	1	0	0	7.7684	0.427672	0.426794	-1.72242	1	0.00465171	9	0	0.000000000000000E+000	-0.000735119
2	0	0	1	0	0	8.0681	0.430668	0.429441	-1.91021	1	0.004998	9	0	0.000000000000000E+000	-0.000820322
2	0	0	1	0	0	8.3677	0.433665	0.433851	-2.231	1	0.00534333	9	0	0.000000000000000E+000	-0.00096792
2	0	0	1	0	0	8.6673	0.436661	0.436648	-2.36071	1	0.00571809	9	0	0.000000000000000E+000	-0.0010308
2	0	0	1	0	0	8.9669	0.439658	0.438151	-2.59569	1	0.00610713	9	0	0.000000000000000E+000	-0.0011373
2	0	0	1	0	0	9.2666	0.442654	0.442381	-2.7316	1	0.00649243	9	0	0.000000000000000E+000	-0.00120841
2	0	0	1	0	0	9.5663	0.445651	0.44565	-2.7661	1	0.00690588	9	0	0.000000000000000E+000	-0.00123271
2	0	0	1	0	0	9.8659	0.448647	0.448322	-2.75999	1	0.00733566	9	0	0.000000000000000E+000	-0.00123736
2	1	0	1	0	0	10.0763	0.449246	0.449436	5.1757	1	0.00783578	9	0	0.000000000000000E+000	0.00232615
2	1	0	1	0	0	10.376	0.44625	0.445763	4.80213	1	0.0082414	9	0	0.000000000000000E+000	0.00214061
2	1	0	1	0	0	10.6757	0.443253	0.442715	5.06189	1	0.0086189	9	0	0.000000000000000E+000	0.00224097
2	1	0	1	0	0	10.9753	0.440257	0.439981	5.05192	1	0.0089911	9	0	0.000000000000000E+000	0.00222275
2	1	0	1	0	0	11.2749	0.437261	0.435403	4.99039	1	0.00934165	9	0	0.000000000000000E+000	0.00217283
2	1	0	1	0	0	11.5746	0.434264	0.433246	4.77319	1	0.00967596	9	0	0.000000000000000E+000	0.00206797
2	1	0	1	0	0	11.8743	0.431268	0.431207	4.93757	1	0.00999087	9	0	0.000000000000000E+000	0.00212911
2	1	0	1	0	0	12.1739	0.428271	0.427064	4.83341	1	0.0103017	9	0	0.000000000000000E+000	0.00206417
2	1	0	1	0	0	12.4735	0.425275	0.425015	4.47871	1	0.0105875	9	0	0.0998	0.00190352
2	1	0	1	0	0	12.7731	0.422278	0.421495	4.21457	1	0.0108502	9	0	0.3994	0.00177642
2	1	0	1	0	0	13.0728	0.419282	0.418359	3.76233	1	0.0111187	9	0	0.6991	0.00157401
2	1	0	1	0	0	13.3725	0.416285	0.415758	3.55879	1	0.0113717	9	0	0.9988	0.00147959
2	1	0	1	0	0	13.6721	0.413289	0.412928	2.93341	1	0.0116022	9	0	0.000000000000000E+000	0.00121129
2	1	0	1	0	0	13.9717	0.410293	0.410539	2.29499	1	0.0118179	9	0	0.000000000000000E+000	0.000942183
2	1	0	1	0	0	14.2714	0.407296	0.406774	1.80029	1	0.0120405	9	0	0.000000000000000E+000	0.000732309
2	1	0	1	0	0	14.5711	0.4043	0.404553	1.25515	1	0.0122489	9	0	0.000000000000000E+000	0.000507775
2	0	0	1	0	0	14.8707	0.401303	0.401407	0.563662	1	0.0124277	9	0	0.000000000000000E+000	0.000226258
2	0	0	1	0	0	15.1703	0.398307	0.397519	0.0989738	1	0.0126148	9	0	0.000000000000000E+000	3.9344e-05
2	0	0	1	0	0	15.47	0.395309	0.393694	-0.0204972	1	0.012791	9	0	0.000000000000000E+000	-8.06964e-06
2	0	0	1	0	0	15.7696	0.392315	0.391903	-0.838545	1	0.0129517	9	0	0.000000000000000E+000	-0.000328629
2	0	0	1	0	0	16.0693	0.389317	0.388447	-1.10641	1	0.0131135	9	0	0.000000000000000E+000	-0.000429781
2	0	0	1	0	0	16.3689	0.386321	0.386244	-1.48601	1	0.0132748	9	0	0.000000000000000E+000	-0.000573962
2	0	0	1	0	0	16.6685	0.383325	0.382854	-2.02676	1	0.0134256	9	0	0.000000000000000E+000	-0.000775954
2	0	0	1	0	0	16.9682	0.380328	0.379837	-2.64336	1	0.0135551	9	0	0.000000000000000E+000	-0.00100405
2	0	0	1	0	0	17.2679	0.377332	0.377029	-2.64551	1	0.0137044	9	0	0.000000000000000E+000	-0.000997432
2	0	0	1	0	0	17.5675	0.374335	0.373976	-3.43787	1	0.0138305	9	0	0.000000000000000E+000	-0.00128568
2	0	0	1	0	0	17.8671	0.371339	0.369875	-3.8239	1	0.0139697	9	0	0.000000000000000E+000	-0.00141436
2	0	0	1	0	0	18.1668	0.368341	0.368742	-3.40707	1	0.014111	9	0	0.000000000000000E+000	-0.00125633
2	0	0	1	0	0	18.4664	0.365347	0.364198	-2.07309	1	0.0143211	9	0	0.000000000000000E+000	-0.000755016
2	0	0	1	0	0	18.7661	0.362349	0.362179	-3.99977	1	0.0145061	9	0	0.000000000000000E+000	-0.00144863
2	0	0	1	0	0	19.0657	0.359353	0.358974	-3.86546	1	0.0145908	9	0	0.000000000000000E+000	-0.0013876
2	0	0	1	0	0	19.3653	0.356356	0.355817	-3.46843	1	0.0146861	9	0	0.000000000000000E+000	-0.00123413
2	0	0	1	0	0	19.665	0.35336	0.35334	-3.23421	1	0.0147782	9	0	0.000000000000000E+000	-0.00114277
2	0	0	1	0	0	19.9647	0.350364	0.350064	-3.13259	1	0.0148516	9	0	0.000000000000000E+000	-0.00109661
2	0	0	1	0	1	20.1311	0.351312	0.350055	-0.483926	2	0.0148039	9	0	0.000000000000000E+000	-0.000169401
2	0	0	1	0	1	20.4307	0.354309	0.35338	-0.83638	2	0.0148688	9	0	0.000000000000000E+000	-0.00029556
2	0	0	1	0	1	20.7303	0.357305	0.357314	-1.17558	2	0.01494	9	0	0.000000000000000E+000	-0.000420052
2	0	0	1	0	1	21.0299	0.360302	0.359618	-1.64812	2	0.0150126	9	0	0.000000000000000E+000	-0.000592692
2	0	0	1	0	1	21.3296	0.363298	0.362383	-1.93098	2	0.0151003	9	0	0.000000000000000E+000	-0.000699754
2	0	0	1	0	1	21.6293	0.366295	0.366121	-1.63011	2	0.0152361	9	0	0.000000000000000E+000	-0.000596817
2	0	0	1	0	1	21.9289	0.369291	0.36892	-2.45179	2	0.0154653	9	0	0.000000000000000E+000	-0.000904513
2	0	0	1	0	1	22.2285	0.372288	0.37146	-1.86403	2	0.015555	9	0	0.000000000000000E+000	-0.000692413
2	0	0	1	0	1	22.5282	0.375284	0.375196	-3.1416	2	0.0160389	9	0	0.000000000000000E+000	-0.00117872
2	0	0	1	0	1	22.8279	0.37828	0.378325	-3.18724	2	0.0161543	9	0	0.000000000000000E+000	-0.00120581
2	0	0	1	0	1	23.1275	0.381277	0.380495	-3.59979	2	0.0162455	9	0	0.000000000000000E+000	-0.0013697
2	0	0	1	0	1	23.4271	0.384273	0.38234	-3.55522	2	0.0163832	9	0	0.000000000000000E+000	-0.0013593
2	0	0	1	0	1	23.7268	0.387271	0.386617	-3.57312	2	0.016524	9	0	0.000000000000000E+000	-0.00138143
2	0	0	1	0	1	24.0264	0.390266	0.38929	-3.23583	2	0.016706	9	0	0.000000000000000E+000	-0.00125968
2	0	0	1	0	1	24.3261	0.393263	0.392554	-2.90576	2	0.016898	9	0	0.000000000000000E+000	-0.00114067
2	0	0	1	0	1	24.6257	0.396259	0.395231	-3.61328	2	0.0170168	9	0	0.000000000000000E+000	-0.00142808
2	0	0	1	0	1	24.9253	0.399256	0.399214	-3.22298	2	0.0173671	9	0	0.000000000000000E+000	-0.00128666
2	0	0	1	0	1	25.225	0.402252	0.401841	-2.3569	2	0.017507	9	0	0.0499	-0.000947101
2	0	0	1	0	1	25.5247	0.405248	0.405358	-1.97488	2	0.0176932	9	0	0.3496	-0.000800532
2	0	0	1	0	1	25.8243	0.408245	0.407585	-1.58173	2	0.0178807	9	0	0.000000000000000E+000	-0.000644692
2	0	0	1	0	1	26.1239	0.411241	0.410394	-1.12043	2	0.0180899	9	0	0.000000000000000E+000	-0.000459817
2	0	0	1	0	1	26.4236	0.414239	0.41391	-0.780017	2	0.0183121	9	0	0.000000000000000E+000	-0.000322857
2	0	0	1	0	1	26.7232	0.417233	0.417119	-0.401008	2	0.0185586	9	0	0.000000000000000E+000	-0.000167268
2	0	0	1	0	1	26.9894	0.419906	0.417104	-47.415	2	0.0185226	9	0	0.0215	-0.019777