Folder: SI_for_publications/ACS_Catal_2026/Figures_Na_K/main_figures/data/EC/20251112_2-148_alpha_reproducibility (part 10)

File: 20251112_2-148_002_alpha_reproducibility_2_Na1_01_CVA_C02.mpt
EC-Lab ASCII FILE
Nb header lines : 66

Cyclic Voltammetry Advanced

Run on channel : 2 (SN 69290)
User :
CE vs. WE compliance from -10 V to 10 V
Electrode connection : standard
Potential control : Ewe
Ewe ctrl range : min = -1.00 V, max = 1.00 V
Safety Limits :
	Do not start on E overload
Acquisition started on : 11/12/2025 13:57:42.969
Loaded Setting File :  C:\Users\User\Documents\EC-Lab\Data\Yatsuzuka\20251112_2-148_alpha_reproducibility\20251112_2-148_002_alpha_reproducibility_2_K1.mps
Saved on :
	File : 20251112_2-148_002_alpha_reproducibility_2_Na1_01_CVA_C02.mpr
	Directory : C:\Users\User\Documents\EC-Lab\Data\Yatsuzuka\20251112_2-148_alpha_reproducibility\
	Host : 192.109.209.127
Device : SP-150e (SN .003883)
Address : 192.109.209.128
EC-LAB for windows v11.52 (software)
Internet server v11.52 (firmware)
Command interpretor v11.50 (firmware)
Electrode material :
Initial state :
Electrolyte :
Comments :
Electrode surface area : 0.001 cm2
Characteristic mass : 0.001 g
Equivalent Weight : 0.000 g/eq.
Density : 0.000 g/cm3
Volume (V) : 0.001 cm3
Cycle Definition : Charge/Discharge alternance
Ei (V)              0.350
vs.                 Ref
ti (h:m:s)          0:00:10.0000
dti (s)             0.0000
dE/dt               10.000
dE/dt unit          mV/s
E1 (V)              0.450
vs.                 Ref
t1 (h:m:s)          0:00:0.0000
dt1 (s)             0.1000
Step percent        50
N                   10
E range min (V)     -1.000
E range max (V)     1.000
I Range             Auto
I Range min         Unset
I Range max         Unset
I Range init        Unset
Bandwidth           5
E2 (V)              0.350
vs.                 Ref
t2 (h:m:s)          0:00:0.0000
dt2 (s)             0.1000
nc cycles           9
nr                  1
Reverse Scan        0
Ef (V)              0.000
vs.                 Eoc
tf (h:m:s)          0:00:0.0000
dtf (s)             0.1000

mode	ox/red	error	control changes	Ns changes	counter inc.	time/s	control/V	Ewe/V	<I>/mA	cycle number	(Q-Qo)/C	I Range	Ns	step time/s	Pwe/W	Rwe/Ohm
2	0	0	1	0	0	0.000000000000000E+000	0.349989	0.349495	-0.00690457	1	0.0000000E+000	13	0	0.000000000000000E+000	-2.41312e-06	50618
2	1	0	1	0	0	1.9353	0.369341	0.368944	0.0384262	1	6.66703e-05	13	0	1.9078	1.41771e-05	9601.37
2	1	0	1	0	0	3.8331	0.388319	0.387929	0.0300325	1	0.00013069	13	0	3.8056	1.16505e-05	12917
2	1	0	1	0	0	5.7308	0.407296	0.406883	0.0240404	1	0.000191331	13	0	5.7033	9.78161e-06	16925
2	1	0	1	0	0	7.6285	0.426274	0.425836	0.0324153	1	0.000248806	13	0	7.601	1.38036e-05	13136.9
2	1	0	1	0	0	9.5263	0.445251	0.444785	0.0345199	1	0.000303729	13	0	9.4988	1.53539e-05	12884.9
2	0	0	1	0	0	11.4347	0.435662	0.435136	-0.0326457	1	0.000283994	13	0	1.3933	-1.42053e-05	13329
2	0	0	1	0	0	13.3325	0.416685	0.416153	-0.0254156	1	0.000232274	13	0	3.2911	-1.05768e-05	16373.9
2	0	0	1	0	0	15.2303	0.397707	0.397232	-0.0278091	1	0.000175712	13	0	5.1889	-1.10467e-05	14284.3
2	0	0	1	0	0	17.128	0.37873	0.378282	-0.0415682	1	0.000113972	13	0	7.0866	-1.57245e-05	9100.27
2	0	0	1	0	0	19.0257	0.359752	0.359257	-0.0328402	1	4.62012e-05	13	0	8.9843	-1.17981e-05	10939.6
2	1	0	1	0	1	20.8901	0.358903	0.358434	0.03487	2	3.51904e-05	13	0	0.844	1.24986e-05	10279.1
2	1	0	1	0	1	22.7879	0.377881	0.377446	0.0390215	2	9.90395e-05	13	0	2.7418	1.47285e-05	9672.78
2	1	0	1	0	1	24.6857	0.396858	0.396412	0.0239076	2	0.000160414	13	0	4.6396	9.47724e-06	16581
2	1	0	1	0	1	26.5834	0.415836	0.415378	0.0355857	2	0.000218736	13	0	6.5373	1.47815e-05	11672.6
2	1	0	1	0	1	28.4811	0.434813	0.434316	0.0277701	2	0.000274508	13	0	8.435	1.2061e-05	15639.7
2	0	0	1	0	1	30.3846	0.44615	0.445705	-0.0227706	2	0.000310159	13	0	0.3097	-1.0149e-05	19573.7
2	0	0	1	0	1	32.2823	0.427173	0.426706	-0.0311002	2	0.000261819	13	0	2.2074	-1.32706e-05	13720.4
2	0	0	1	0	1	34.1801	0.408195	0.407689	-0.0226986	2	0.000208022	13	0	4.1052	-9.25397e-06	17961
2	0	0	1	0	1	36.0779	0.389217	0.388759	-0.039411	2	0.000149523	13	0	6.003	-1.53214e-05	9864.22
2	0	0	1	0	1	37.9756	0.37024	0.369746	-0.0279414	2	8.55218e-05	13	0	7.9007	-1.03312e-05	13232.9
2	0	0	1	0	1	39.8733	0.351263	0.350798	-0.0450786	2	1.5016e-05	13	0	9.7984	-1.58135e-05	7781.92
2	1	0	1	0	0	41.7427	0.367443	0.366961	0.0262105	3	6.5339e-05	13	0	1.698	9.61825e-06	14000.5
2	1	0	1	0	0	43.6405	0.386421	0.385982	0.0395869	3	0.000128136	13	0	3.5958	1.52798e-05	9750.25
2	1	0	1	0	0	45.5382	0.405397	0.404959	0.0306476	3	0.000188005	13	0	5.4935	1.2411e-05	13213.4
2	1	0	1	0	0	47.436	0.424377	0.423902	0.0224865	3	0.000244957	13	0	7.3913	9.53209e-06	18851.4
2	1	0	1	0	0	49.3337	0.443353	0.442903	0.0282323	3	0.000299553	13	0	9.289	1.25042e-05	15687.8
2	0	0	1	0	0	51.2322	0.43766	0.437149	-0.0187812	3	0.000290031	13	0	1.1587	-8.21018e-06	23275.9
2	0	0	1	0	0	53.1299	0.418683	0.418142	-0.0305417	3	0.000239064	13	0	3.0564	-1.27708e-05	13690.9
2	0	0	1	0	0	55.0277	0.399705	0.39924	-0.0379098	3	0.00018338	13	0	4.9542	-1.51351e-05	10531.3
2	0	0	1	0	0	56.9255	0.380728	0.380264	-0.0307401	3	0.000122676	13	0	6.852	-1.16894e-05	12370.3
2	0	0	1	0	0	58.8232	0.36175	0.361296	-0.0297181	3	5.61396e-05	13	0	8.7497	-1.07371e-05	12157.4
2	1	0	1	0	1	60.6277	0.356307	0.355877	0.0268614	4	2.97173e-05	13	0	0.5494	9.55935e-06	13248.6
2	1	0	1	0	1	62.5254	0.375284	0.374848	0.0261513	4	9.33851e-05	13	0	2.4471	9.80276e-06	14333.8
2	1	0	1	0	1	64.4231	0.394262	0.393821	0.0308643	4	0.00015482	13	0	4.3448	1.2155e-05	12759.8
2	1	0	1	0	1	66.3209	0.413239	0.41278	0.0359855	4	0.000213243	13	0	6.2426	1.48541e-05	11470.7
2	1	0	1	0	1	68.2187	0.432217	0.431762	0.0346642	4	0.000269122	13	0	8.1404	1.49667e-05	12455.6
2	1	0	1	0	1	70.0372	0.449596	0.449126	-0.0119861	4	0.000319206	13	0	0.000000000000000E+000	-5.38326e-06	37470.7
2	0	0	1	0	1	71.9799	0.430169	0.429665	-0.0219641	4	0.000271868	13	0	1.9427	-9.43721e-06	19562.1
2	0	0	1	0	1	73.8777	0.411191	0.410668	-0.0222445	4	0.00021905	13	0	3.8405	-9.13511e-06	18461.6
2	0	0	1	0	1	75.7754	0.392214	0.3917	-0.0319733	4	0.000161624	13	0	5.7382	-1.25239e-05	12250.9
2	0	0	1	0	1	77.6731	0.373237	0.372747	-0.0417492	4	9.89144e-05	13	0	7.6359	-1.55619e-05	8928.23
2	0	0	1	0	1	79.5709	0.354259	0.353784	-0.0444154	4	2.99694e-05	13	0	9.5337	-1.57135e-05	7965.36
2	1	0	1	0	0	81.4353	0.364397	0.363964	0.0396545	5	5.8797e-05	13	0	1.3434	1.44328e-05	9178.37
2	1	0	1	0	0	83.3331	0.383374	0.38287	0.0338428	5	0.00012172	13	0	3.2412	1.29574e-05	11313.2
2	1	0	1	0	0	85.2308	0.402353	0.40191	0.0236215	5	0.0001818	13	0	5.1389	9.49372e-06	17014.5
2	1	0	1	0	0	87.1285	0.421329	0.420898	0.02993	5	0.000238924	13	0	7.0366	1.25975e-05	14062.7
2	1	0	1	0	0	89.0263	0.440307	0.439861	0.0356875	5	0.000293687	13	0	8.9344	1.56976e-05	12325.3
2	0	0	1	0	0	90.9297	0.440657	0.440138	-0.0194663	5	0.000300167	13	0	0.8939	-8.56787e-06	22610.2
2	0	0	1	0	0	92.8275	0.421679	0.421165	-0.0299312	5	0.000250204	13	0	2.7917	-1.2606e-05	14071.1
2	0	0	1	0	0	94.7253	0.402701	0.402189	-0.0374011	5	0.000195469	13	0	4.6895	-1.50423e-05	10753.4
2	0	0	1	0	0	96.623	0.383724	0.383258	-0.0382676	5	0.000135842	13	0	6.5872	-1.46664e-05	10015.2
2	0	0	1	0	0	98.5207	0.364747	0.364259	-0.0348664	5	7.06605e-05	13	0	8.4849	-1.27004e-05	10447.3
2	1	0	1	0	1	100.385	0.353909	0.353484	0.0301588	6	2.56586e-05	13	0	0.2946	1.06607e-05	11720.8
2	1	0	1	0	1	102.283	0.372887	0.372417	0.0266117	6	8.90734e-05	13	0	2.1924	9.91065e-06	13994.5
[...]
2	0	0	1	0	0	130.727	0.442653	0.442164	-0.0288738	7	0.000308219	13	0	0.6942	-1.2767e-05	15313.7
2	0	0	1	0	0	132.625	0.423677	0.423198	-0.0345445	7	0.000258932	13	0	2.5919	-1.46191e-05	12250.8
2	0	0	1	0	0	134.523	0.404699	0.404211	-0.0288146	7	0.000204818	13	0	4.4897	-1.16472e-05	14028
2	0	0	1	0	0	136.42	0.385722	0.385233	-0.0351011	7	0.000145944	13	0	6.3875	-1.35221e-05	10974.9
2	0	0	1	0	0	138.318	0.366744	0.366293	-0.0338085	7	8.16432e-05	13	0	8.2852	-1.23838e-05	10834.3
2	1	0	1	0	1	140.153	0.351612	0.351158	0.0371275	8	2.23982e-05	12	0	0.0649	1.30376e-05	9458.18
2	1	0	1	0	1	142.08	0.370889	0.370417	0.0374011	8	8.64223e-05	13	0	1.9926	1.3854e-05	9903.92
2	1	0	1	0	1	143.978	0.389867	0.389472	0.0269317	8	0.000148157	13	0	3.8904	1.04891e-05	14461.5
2	1	0	1	0	1	145.876	0.408844	0.408382	0.0347652	8	0.000206868	13	0	5.7881	1.41974e-05	11746.9
2	1	0	1	0	1	147.773	0.427822	0.427406	0.0250574	8	0.000262951	13	0	7.6858	1.07097e-05	17057.1
2	1	0	1	0	1	149.671	0.446799	0.446355	0.0308188	8	0.000316813	13	0	9.5836	1.37561e-05	14483.2
2	0	0	1	0	1	151.575	0.434163	0.433651	-0.030791	8	0.000288695	13	0	1.5432	-1.33525e-05	14083.7
2	0	0	1	0	1	153.472	0.415187	0.414651	-0.0241141	8	0.000237127	13	0	3.4409	-9.99896e-06	17195.4
2	0	0	1	0	1	155.37	0.396209	0.395708	-0.0366682	8	0.000181063	13	0	5.3387	-1.45099e-05	10791.6
2	0	0	1	0	1	157.268	0.377232	0.376743	-0.0275288	8	0.000120005	13	0	7.2365	-1.03713e-05	13685.4
2	0	0	1	0	1	159.166	0.358254	0.357788	-0.0447382	8	5.29984e-05	13	0	9.1342	-1.60068e-05	7997.37
2	1	0	1	0	0	161.03	0.360402	0.359946	0.0406038	9	5.32662e-05	13	0	0.9438	1.46152e-05	8864.85
2	1	0	1	0	0	162.928	0.379379	0.378904	0.035167	9	0.000116349	13	0	2.8416	1.33249e-05	10774.4
2	1	0	1	0	0	164.826	0.398357	0.397906	0.0301938	9	0.000176692	13	0	4.7394	1.20143e-05	13178.4
2	1	0	1	0	0	166.723	0.417334	0.416881	0.0258286	9	0.000234055	13	0	6.6371	1.07674e-05	16140.3
2	1	0	1	0	0	168.621	0.436312	0.435848	0.0233157	9	0.000289002	13	0	8.5348	1.01621e-05	18693.3
2	0	0	1	0	0	170.525	0.444653	0.444142	-0.0291297	9	0.000316399	13	0	0.4944	-1.29377e-05	15247
2	0	0	1	0	0	172.422	0.425674	0.425193	-0.0344037	9	0.00026787	13	0	2.3921	-1.46282e-05	12358.9
2	0	0	1	0	0	174.32	0.406697	0.406209	-0.036628	9	0.000214355	13	0	4.2899	-1.48786e-05	11090.1
2	0	0	1	0	0	176.218	0.387719	0.387248	-0.0389825	9	0.000156156	13	0	6.1877	-1.50959e-05	9933.91
2	0	0	1	0	0	178.116	0.368743	0.368271	-0.0411892	9	9.26684e-05	13	0	8.0854	-1.51688e-05	8940.95
2	0	0	1	0	0	179.987	0.349989	0.349553	-0.0316719	9	2.38414e-05	13	0	9.9572	-1.1071e-05	11036.7
2	1	0	1	0	1	181.878	0.368892	0.368457	0.0405461	10	8.36129e-05	13	0	1.7928	1.49395e-05	9087.36
2	1	0	1	0	1	183.775	0.387869	0.387402	0.0355903	10	0.000145514	13	0	3.6906	1.37877e-05	10885.1
2	1	0	1	0	1	185.673	0.406847	0.40641	0.0276374	10	0.000204467	13	0	5.5884	1.12321e-05	14705.1
2	1	0	1	0	1	187.571	0.425824	0.425398	0.0215084	10	0.000260616	13	0	7.4861	9.14962e-06	19778.2
2	1	0	1	0	1	189.469	0.444802	0.444321	0.0228367	10	0.000314569	13	0	9.3838	1.01468e-05	19456.4
2	0	0	1	0	1	191.372	0.436162	0.435653	-0.0240599	10	0.000297096	13	0	1.3434	-1.04818e-05	18107
2	0	0	1	0	1	193.27	0.417184	0.416673	-0.0210189	10	0.000246132	13	0	3.2411	-8.75801e-06	19823.8
2	0	0	1	0	1	195.168	0.398207	0.397728	-0.0271861	10	0.000190662	13	0	5.1389	-1.08127e-05	14629.8
2	0	0	1	0	1	197.065	0.379229	0.37877	-0.038035	10	0.000130299	13	0	7.0367	-1.44065e-05	9958.45
2	0	0	1	0	1	198.963	0.360253	0.359816	-0.0427806	10	6.41393e-05	13	0	8.9344	-1.53931e-05	8410.72
2	0	0	0	0	1	199.986	0.349989	0.349629	-0.0331836	10	2.58653e-05	13	0	9.9572	-1.1602e-05	10536.2

File: 20251112_2-148_002_alpha_reproducibility_2_Na1_02_PEIS_C02.mpt
EC-Lab ASCII FILE
Nb header lines : 63

Potentio Electrochemical Impedance Spectroscopy

Run on channel : 2 (SN 69290)
User :
CE vs. WE compliance from -10 V to 10 V
Electrode connection : standard
Potential control : Ewe
Ewe ctrl range : min = -1.00 V, max = 1.00 V
Safety Limits :
	Do not start on E overload
Acquisition started on : 11/12/2025 13:57:42.969
Loaded Setting File :  C:\Users\User\Documents\EC-Lab\Data\Yatsuzuka\20251112_2-148_alpha_reproducibility\20251112_2-148_002_alpha_reproducibility_2_K1.mps
Saved on :
	File : 20251112_2-148_002_alpha_reproducibility_2_Na1_02_PEIS_C02.mpr
	Directory : C:\Users\User\Documents\EC-Lab\Data\Yatsuzuka\20251112_2-148_alpha_reproducibility\
	Host : 192.109.209.127
Device : SP-150e (SN .003883)
Address : 192.109.209.128
EC-LAB for windows v11.52 (software)
Internet server v11.52 (firmware)
Command interpretor v11.50 (firmware)
Electrode material :
Initial state :
Electrolyte :
Comments :
Electrode surface area : 0.001 cm2
Characteristic mass : 0.001 g
Equivalent Weight : 0.000 g/eq.
Density : 0.000 g/cm3
Volume (V) : 0.001 cm3
Cycle Definition : Charge/Discharge alternance
Mode                Single sine
E (V)               0.4500
vs.                 Ref
tE (h:m:s)          0:00:0.0000
record              0
dI                  0.000
unit dI             mA
dt (s)              0.000
fi                  500.000
unit fi             kHz
ff                  1.000
unit ff             Hz
Nd                  6
Points              per decade
spacing             Logarithmic
Va (mV)             10.0
pw                  0.10
Na                  2
corr                0
E range min (V)     -1.000
E range max (V)     1.000
I Range             Auto
Bandwidth           5
nc cycles           0
goto Ns'            0
nr cycles           0
inc. cycle          0

freq/Hz	Re(Z)/Ohm	-Im(Z)/Ohm	|Z|/Ohm	Phase(Z)/deg	time/s	<Ewe>/V	<I>/mA	Cs/uF	Cp/uF	cycle number	I Range	|Ewe|/V	|I|/A	Ns	(Q-Qo)/mA.h	Re(Y)/Ohm-1	Im(Y)/Ohm-1	|Y|/Ohm-1	Phase(Y)/deg	Re(C)/nF	Im(C)/nF	|C|/nF	Phase(C)/deg	Re(M)	Im(M)	|M|	Phase(M)/deg	Re(Permittivity)	Im(Permittivity)	|Permittivity|	Phase(Permittivity)/deg	Re(Resistivity)/Ohm.cm	Im(Resistivity)/Ohm.cm	|Resistivity|/Ohm.cm	Phase(Resistivity)/deg	Re(Conductivity)/mS/cm	Im(Conductivity)/mS/cm	|Conductivity|/mS/cm	Phase(Conductivity)/deg	Tan(Delta)	Loss Angle(Delta)/deg	dq/mA.h	Pwe/W	Rwe/Ohm
500019	13.352	-2.67426	13.6172	11.3259	201.614	0.449781	0.0197475	-0.119023	-0.00459055	1	10	0.00448075	0.000329052	0	3.25877e-05	0.0720066	-0.0144222	0.0734367	-11.3259	-4.59055	22.9196	23.3748	-101.326	0.0000000E+000	0.0000000E+000	0.0000000E+000	101.326	0.0000000E+000	0.0000000E+000	0.0000000E+000	-101.326	0.0000000E+000	0.0000000E+000	0.0000000E+000	11.3259	0.0000000E+000	0.0000000E+000	0.0000000E+000	-11.3259	4.99277	78.6741	3.25877e-05	8.88206e-06	22776.6
231063	7.94777	-0.626609	7.97243	4.50792	202.459	0.449535	0.0209446	-1.09924	-0.00679055	1	10	0.0101502	0.00127316	0	3.88554e-05	0.125044	-0.00985858	0.125432	-4.50792	-6.79055	86.1299	86.3972	-94.5079	0.0000000E+000	0.0000000E+000	0.0000000E+000	94.5079	0.0000000E+000	0.0000000E+000	0.0000000E+000	-94.5079	0.0000000E+000	0.0000000E+000	0.0000000E+000	4.50792	0.0000000E+000	0.0000000E+000	0.0000000E+000	-4.50792	12.6838	85.4921	3.07003e-06	9.41532e-06	21463.1
106786	7.4367	-0.0238254	7.43673	0.183561	203.303	0.449524	0.0181217	-62.5554	-0.000642067	1	10	0.0109517	0.00147265	0	4.66151e-05	0.134467	-0.0004308	0.134468	-0.183561	-0.642073	200.41	200.411	-90.1836	0.0000000E+000	0.0000000E+000	0.0000000E+000	90.1836	0.0000000E+000	0.0000000E+000	0.0000000E+000	-90.1836	0.0000000E+000	0.0000000E+000	0.0000000E+000	0.183561	0.0000000E+000	0.0000000E+000	0.0000000E+000	-0.183561	312.133	89.8164	4.39118e-06	8.14613e-06	24805.9
49352.4	7.43958	0.0566899	7.4398	-0.436587	204.148	0.449543	0.0192143	56.8862	0.0033029	1	10	0.0106044	0.00142536	0	4.82779e-05	0.134408	0.0010242	0.134412	0.436587	3.30288	433.449	433.462	-89.5634	0.0000000E+000	0.0000000E+000	0.0000000E+000	89.5634	0.0000000E+000	0.0000000E+000	0.0000000E+000	-89.5634	0.0000000E+000	0.0000000E+000	0.0000000E+000	-0.436587	0.0000000E+000	0.0000000E+000	0.0000000E+000	0.436587	131.233	89.5634	1.02311e-06	8.63765e-06	23396.3
22806.6	7.45172	0.0518185	7.4519	-0.398422	204.992	0.44954	0.0200272	134.672	0.00651195	1	10	0.0105059	0.00140983	0	5.03104e-05	0.134191	0.000933149	0.134194	0.398422	6.51195	936.446	936.469	-89.6016	0.0000000E+000	0.0000000E+000	0.0000000E+000	89.6016	0.0000000E+000	0.0000000E+000	0.0000000E+000	-89.6016	0.0000000E+000	0.0000000E+000	0.0000000E+000	-0.398422	0.0000000E+000	0.0000000E+000	0.0000000E+000	0.398422	143.804	89.6016	1.64422e-06	9.00303e-06	22446.4
10540.4	7.46167	0.0439304	7.4618	-0.337324	205.836	0.449544	0.0168035	343.715	0.0119136	1	10	0.0102865	0.00137856	0	5.28181e-05	0.134014	0.000789002	0.134016	0.337324	11.9137	2023.54	2023.58	-89.6627	0.0000000E+000	0.0000000E+000	0.0000000E+000	89.6627	0.0000000E+000	0.0000000E+000	0.0000000E+000	-89.6627	0.0000000E+000	0.0000000E+000	0.0000000E+000	-0.337324	0.0000000E+000	0.0000000E+000	0.0000000E+000	0.337324	169.852	89.6627	1.2416e-06	7.55389e-06	26753
4871.56	7.47838	0.0440208	7.47851	-0.337263	207.05	0.449546	0.0172006	742.154	0.0257146	1	10	0.0101162	0.00135271	0	5.48482e-05	0.133714	0.000787097	0.133717	0.337263	25.7148	4368.47	4368.55	-89.6627	0.0000000E+000	0.0000000E+000	0.0000000E+000	89.6627	0.0000000E+000	0.0000000E+000	0.0000000E+000	-89.6627	0.0000000E+000	0.0000000E+000	0.0000000E+000	-0.337263	0.0000000E+000	0.0000000E+000	0.0000000E+000	0.337263	169.883	89.6627	3.54744e-07	7.73247e-06	26135.5
2250.72	7.49429	0.0643395	7.49457	-0.491879	207.979	0.449532	0.0185505	1099.06	0.0809996	1	10	0.0109752	0.00146442	0	6.11271e-05	0.133425	0.00114547	0.13343	0.491879	81	9434.87	9435.22	-89.5081	0.0000000E+000	0.0000000E+000	0.0000000E+000	89.5081	0.0000000E+000	0.0000000E+000	0.0000000E+000	-89.5081	0.0000000E+000	0.0000000E+000	0.0000000E+000	-0.491879	0.0000000E+000	0.0000000E+000	0.0000000E+000	0.491879	116.481	89.5081	3.42993e-06	8.33906e-06	24232.9
1040.33	7.50348	0.101672	7.50417	-0.776309	209.13	0.449536	0.0173927	1504.69	0.276213	1	10	0.0102232	0.00136233	0	6.99034e-05	0.133247	0.00180549	0.133259	0.776309	276.212	20384.7	20386.6	-89.2237	0.0000000E+000	0.0000000E+000	0.0000000E+000	89.2237	0.0000000E+000	0.0000000E+000	0.0000000E+000	-89.2237	0.0000000E+000	0.0000000E+000	0.0000000E+000	-0.776309	0.0000000E+000	0.0000000E+000	0.0000000E+000	0.776309	73.8009	89.2237	2.49215e-06	7.81863e-06	25846.3
480.769	7.5165	0.19669	7.51908	-1.49896	210.06	0.449529	0.0178271	1683.07	1.15169	1	10	0.0102699	0.00136584	0	7.41781e-05	0.13295	0.00347898	0.132995	1.49896	1151.69	44011.9	44027	-88.501	0.0000000E+000	0.0000000E+000	0.0000000E+000	88.501	0.0000000E+000	0.0000000E+000	0.0000000E+000	-88.501	0.0000000E+000	0.0000000E+000	0.0000000E+000	-1.49896	0.0000000E+000	0.0000000E+000	0.0000000E+000	1.49896	38.215	88.501	2.05453e-06	8.01378e-06	25216
222.061	7.53824	0.398367	7.54876	-3.02505	210.984	0.449535	0.0157407	1799.14	5.0105	1	10	0.0102805	0.00136189	0	7.77037e-05	0.132288	0.0069909	0.132472	3.02505	5010.51	94812.8	94945.1	-86.9749	0.0000000E+000	0.0000000E+000	0.0000000E+000	86.9749	0.0000000E+000	0.0000000E+000	0.0000000E+000	-86.9749	0.0000000E+000	0.0000000E+000	0.0000000E+000	-3.02505	0.0000000E+000	0.0000000E+000	0.0000000E+000	3.02505	18.9228	86.9749	9.58564e-07	7.07599e-06	28558.8
102.667	7.58773	0.800627	7.62985	-6.02334	211.921	0.449543	0.0170738	1936.23	21.32	1	10	0.0102882	0.00134842	0	8.35001e-05	0.130341	0.013753	0.131064	6.02334	21320	202054	203176	-83.9767	0.0000000E+000	0.0000000E+000	0.0000000E+000	83.9767	0.0000000E+000	0.0000000E+000	0.0000000E+000	-83.9767	0.0000000E+000	0.0000000E+000	0.0000000E+000	-6.02334	0.0000000E+000	0.0000000E+000	0.0000000E+000	6.02334	9.47723	83.9767	3.02031e-06	7.67542e-06	26329.4
47.4443	7.67882	1.6401	7.85202	-12.0565	212.832	0.449528	0.0168687	2045.34	89.2367	1	10	0.0102989	0.00131163	0	8.88623e-05	0.124547	0.0266016	0.127356	12.0565	89236.7	417799	427223	-77.9435	0.0000000E+000	0.0000000E+000	0.0000000E+000	77.9435	0.0000000E+000	0.0000000E+000	0.0000000E+000	-77.9435	0.0000000E+000	0.0000000E+000	0.0000000E+000	-12.0565	0.0000000E+000	0.0000000E+000	0.0000000E+000	12.0565	4.68192	77.9435	2.92822e-06	7.58296e-06	26648.6
21.9144	7.81117	3.34948	8.49902	-23.21	213.7	0.449521	0.0158563	2168.26	336.767	1	10	0.0103077	0.00121281	0	9.52809e-05	0.108138	0.0463703	0.117661	23.21	336767	785358	854517	-66.79	0.0000000E+000	0.0000000E+000	0.0000000E+000	66.79	0.0000000E+000	0.0000000E+000	0.0000000E+000	-66.79	0.0000000E+000	0.0000000E+000	0.0000000E+000	-23.21	0.0000000E+000	0.0000000E+000	0.0000000E+000	23.21	2.33205	66.79	4.49808e-06	7.12773e-06	28349.7
10.1329	8.06697	6.95193	10.6492	-40.754	214.627	0.449529	0.0158936	2259.33	962.845	1	10	0.0103176	0.000968865	0	9.33489e-05	0.071134	0.0613016	0.0939038	40.754	962845	1.11728e+06	1.47492e+06	-49.246	0.0000000E+000	0.0000000E+000	0.0000000E+000	49.246	0.0000000E+000	0.0000000E+000	0.0000000E+000	-49.246	0.0000000E+000	0.0000000E+000	0.0000000E+000	-40.754	0.0000000E+000	0.0000000E+000	0.0000000E+000	40.754	1.16039	49.246	-4.00693e-06	7.14463e-06	28283.7
4.68375	8.36131	14.6943	16.9066	-60.3594	215.677	0.449539	0.000489911	2312.48	1746.87	1	11	0.0103304	0.000611024	0	0.000102673	0.0292523	0.0514085	0.0591484	60.3594	1.74687e+06	994000	2.00988e+06	-29.6406	0.0000000E+000	0.0000000E+000	0.0000000E+000	29.6406	0.0000000E+000	0.0000000E+000	0.0000000E+000	-29.6406	0.0000000E+000	0.0000000E+000	0.0000000E+000	-60.3594	0.0000000E+000	0.0000000E+000	0.0000000E+000	60.3594	0.569017	29.6406	8.74089e-06	2.20234e-07	917595
2.16533	9.10313	31.0236	32.3316	-73.6469	217.391	0.449553	0.0017119	2369.22	2181.4	1	11	0.0103288	0.000319466	0	9.53831e-05	0.00870838	0.0296783	0.0309295	73.6469	2.1814e+06	640080	2.27337e+06	-16.3531	0.0000000E+000	0.0000000E+000	0.0000000E+000	16.3531	0.0000000E+000	0.0000000E+000	0.0000000E+000	-16.3531	0.0000000E+000	0.0000000E+000	0.0000000E+000	-73.6469	0.0000000E+000	0.0000000E+000	0.0000000E+000	73.6469	0.293426	16.3531	-6.63885e-06	7.6959e-07	262605
1.00006	10.6575	65.9996	66.8546	-80.8272	221.731	0.449552	0.000221599	2411.3	2350.02	1	12	0.0103339	0.000154573	0	0.000100929	0.00238447	0.0147666	0.0149578	80.8272	2.35002e+06	379476	2.38046e+06	-9.17281	0.0000000E+000	0.0000000E+000	0.0000000E+000	9.17281	0.0000000E+000	0.0000000E+000	0.0000000E+000	-9.17281	0.0000000E+000	0.0000000E+000	0.0000000E+000	-80.8272	0.0000000E+000	0.0000000E+000	0.0000000E+000	80.8272	0.161478	9.17281	5.71913e-06	9.962e-08	2.02868e+06