Folder: SI_for_publications/ACS_Catal_2026/Figures_Na_K/main_figures/data/EC/20251112_2-148_alpha_reproducibility (part 20)

File: 20251112_2-148_004_Na_first_2_K1_03_CVA_C02.mpt
EC-Lab ASCII FILE
Nb header lines : 66

Cyclic Voltammetry Advanced

Run on channel : 2 (SN 69290)
User :
CE vs. WE compliance from -10 V to 10 V
Electrode connection : standard
Potential control : Ewe
Ewe ctrl range : min = -1.00 V, max = 1.00 V
Safety Limits :
	Do not start on E overload
Acquisition started on : 11/12/2025 16:20:32.186
Loaded Setting File :  C:\Users\User\Documents\EC-Lab\Data\Yatsuzuka\20251112_2-148_alpha_reproducibility\20251112_2-148_002_alpha_reproducibility_2_K1.mps
Saved on :
	File : 20251112_2-148_004_Na_first_2_K1_03_CVA_C02.mpr
	Directory : C:\Users\User\Documents\EC-Lab\Data\Yatsuzuka\20251112_2-148_alpha_reproducibility\
	Host : 192.109.209.127
Device : SP-150e (SN .003883)
Address : 192.109.209.128
EC-Lab for windows v11.52 (software)
Internet server v11.52 (firmware)
Command interpretor v11.50 (firmware)
Electrode material :
Initial state :
Electrolyte :
Comments :
Electrode surface area : 0.001 cm2
Characteristic mass : 0.001 g
Equivalent Weight : 0.000 g/eq.
Density : 0.000 g/cm3
Volume (V) : 0.001 cm3
Cycle Definition : Charge/Discharge alternance
Ei (V)              0.450
vs.                 Ref
ti (h:m:s)          0:00:10.0000
dti (s)             0.0000
dE/dt               5.000
dE/dt unit          mV/s
E1 (V)              0.700
vs.                 Ref
t1 (h:m:s)          0:00:0.0000
dt1 (s)             0.1000
Step percent        50
N                   10
E range min (V)     -1.000
E range max (V)     1.000
I Range             10 mA
I Range min         Unset
I Range max         Unset
I Range init        Unset
Bandwidth           5
E2 (V)              0.450
vs.                 Ref
t2 (h:m:s)          0:00:0.0000
dt2 (s)             0.1000
nc cycles           14
nr                  1
Reverse Scan        0
Ef (V)              0.000
vs.                 Eoc
tf (h:m:s)          0:00:0.0000
dtf (s)             0.1000

mode	ox/red	error	control changes	Ns changes	counter inc.	time/s	control/V	Ewe/V	<I>/mA	cycle number	(Q-Qo)/C	I Range	Ns	step time/s	P/W
2	1	0	1	0	0	232.052	0.450021	0.449535	0.0212069	1	0.0000000E+000	11	0	0.000000000000000E+000	9.53322e-06
2	1	0	0	0	0	244.792	0.51372	0.513263	0.0149737	1	0.000176488	11	0	12.685	7.68544e-06
2	1	0	0	0	0	257.577	0.577644	0.577142	0.0273522	1	0.000394019	11	0	25.4698	1.57861e-05
2	1	0	1	0	0	270.362	0.641569	0.641112	0.226753	1	0.00145804	11	0	38.2547	0.000145374
2	1	0	0	0	0	282.898	0.695754	0.695345	1.50904	1	0.0125468	11	0	50.7902	0.0010493
2	1	0	0	0	0	295.682	0.63183	0.631414	0.114497	1	0.0200233	11	0	63.575	7.22948e-05
2	0	0	0	0	0	308.467	0.567906	0.567482	-0.00131757	1	0.0204273	11	0	0.2996	-7.47698e-07
2	1	0	1	0	0	321.252	0.503981	0.503551	-0.00634065	1	0.0203374	11	0	12.5851	-3.19284e-06
2	1	0	1	0	1	333.806	0.458835	0.458394	0.01405	2	0.0202442	11	0	1.753	6.44044e-06
2	1	0	1	0	1	346.591	0.522759	0.522313	0.0161811	2	0.0204088	11	0	14.5378	8.45159e-06
2	1	0	1	0	1	359.376	0.586684	0.586255	0.0258597	2	0.0206265	11	0	27.3227	1.51604e-05
2	1	0	1	0	1	372.161	0.650607	0.650167	0.315527	2	0.0220358	11	0	40.1075	0.000205145
2	1	0	1	0	1	384.686	0.686765	0.686307	0.998161	2	0.0341603	11	0	52.633	0.000685045
2	1	0	1	0	1	397.471	0.62284	0.622376	0.0709508	2	0.0389963	11	0	65.4179	4.41581e-05
2	1	0	1	0	1	410.256	0.558916	0.558409	-0.00187946	2	0.0392093	11	0	2.2973	-1.04951e-06
2	1	0	0	0	1	423.041	0.494992	0.49453	-0.00738134	2	0.0391073	11	0	15.0822	-3.6503e-06
2	1	0	1	0	0	435.595	0.467825	0.467372	0.013111	3	0.0390538	11	0	3.4959	6.12771e-06
2	1	0	1	0	0	448.38	0.531748	0.531342	0.0149216	3	0.0392169	11	0	16.2807	7.92849e-06
2	1	0	1	0	0	461.165	0.595673	0.595189	0.0367794	3	0.0394602	11	0	29.0656	2.18907e-05
2	1	0	1	0	0	473.95	0.659597	0.659127	0.440086	3	0.0414303	11	0	41.8504	0.000290072
2	1	0	1	0	0	486.475	0.677775	0.677353	0.754975	3	0.0543111	11	0	54.3759	0.000511385
2	1	0	1	0	0	499.26	0.613852	0.613428	0.0419221	3	0.0576796	11	0	67.1607	2.57162e-05
2	0	0	1	0	0	512.045	0.549927	0.549516	-0.00727089	3	0.0577779	11	0	3.6956	-3.99547e-06
2	0	0	1	0	0	524.83	0.486003	0.48554	-0.0115874	3	0.0576675	11	0	16.4804	-5.62613e-06
2	1	0	1	0	1	537.384	0.476813	0.476339	0.013718	4	0.0576544	11	0	5.2937	6.53441e-06
2	1	0	0	0	1	550.169	0.540738	0.54028	0.0132174	4	0.0578178	11	0	18.0786	7.14109e-06
2	1	0	0	0	1	562.954	0.604662	0.604215	0.0455941	4	0.0581049	11	0	30.8634	2.75487e-05
2	1	0	1	0	1	575.739	0.668587	0.66813	0.607933	4	0.0608938	11	0	43.6483	0.000406178
2	1	0	0	0	1	588.264	0.668786	0.668322	0.534601	4	0.0737512	11	0	56.1738	0.000357286
2	1	0	0	0	1	601.049	0.604862	0.604416	0.0224156	4	0.0760874	11	0	68.9586	1.35483e-05
2	0	0	1	0	1	613.834	0.540937	0.540459	-0.00957599	4	0.0761147	11	0	6.1927	-5.17543e-06
2	1	0	1	0	1	626.619	0.477013	0.476565	-0.00765898	4	0.0759984	11	0	18.9775	-3.65e-06
2	1	0	1	0	0	639.173	0.485803	0.485331	0.0155061	5	0.0760268	11	0	7.0916	7.52557e-06
2	1	0	1	0	0	651.958	0.549728	0.549309	0.015645	5	0.076191	11	0	19.8765	8.59394e-06
2	1	0	1	0	0	664.743	0.613651	0.613172	0.0615512	5	0.0765456	11	0	32.6613	3.77415e-05
2	1	0	1	0	0	677.527	0.677575	0.677098	0.850217	5	0.0805403	11	0	45.4461	0.00057568
2	1	0	1	0	0	690.053	0.659797	0.659374	0.387422	5	0.0934073	11	0	57.9716	0.000255456
2	1	0	1	0	0	702.838	0.595872	0.595401	0.0152894	5	0.0950042	11	0	70.7565	9.10333e-06
2	0	0	1	0	0	715.623	0.531948	0.531482	-0.00691582	5	0.0949828	11	0	7.4911	-3.67564e-06
2	0	0	0	0	0	728.408	0.468024	0.467578	-0.0132938	5	0.0948606	11	0	20.276	-6.21588e-06
2	1	0	1	0	1	740.962	0.494793	0.494292	0.0131481	6	0.0949299	11	0	8.8895	6.499e-06
2	1	0	1	0	1	753.747	0.558716	0.558265	0.0150435	6	0.0950979	11	0	21.6743	8.39825e-06
2	1	0	1	0	1	766.532	0.622641	0.622201	0.0899462	6	0.0955576	11	0	34.4592	5.59646e-05
2	1	0	1	0	1	779.316	0.686565	0.686142	1.12204	6	0.101135	11	0	47.244	0.000769877
2	1	0	1	0	1	791.842	0.650807	0.650352	0.261157	6	0.112514	11	0	59.7695	0.000169844
2	1	0	1	0	1	804.627	0.586884	0.586433	0.00834513	6	0.113529	11	0	72.5543	4.89385e-06
2	0	0	1	0	1	817.412	0.522959	0.522494	-0.00962858	6	0.113476	11	0	9.3889	-5.03088e-06
2	1	0	1	0	1	830.196	0.459035	0.458553	-0.00802307	6	0.113349	11	0	22.1737	-3.67901e-06
2	1	0	1	0	0	842.751	0.503781	0.503337	0.0148825	7	0.113461	11	0	10.7423	7.49091e-06
2	1	0	0	0	0	855.536	0.567706	0.567248	0.0193727	7	0.113634	11	0	23.5272	1.09891e-05
2	1	0	0	0	0	868.32	0.63163	0.631146	0.12615	7	0.114252	11	0	36.312	7.96192e-05
2	1	0	1	0	0	881.105	0.695555	0.695106	1.42368	7	0.121804	11	0	49.0969	0.000989606
2	1	0	0	0	0	893.631	0.641818	0.641397	0.16945	7	0.131157	11	0	61.6224	0.000108684
2	1	0	0	0	0	906.416	0.577894	0.577471	0.00347965	7	0.131781	11	0	0.000000000000000E+000	2.0094e-06
2	1	0	1	0	0	919.2	0.513969	0.513505	-0.0064093	7	0.131706	11	0	11.0869	-3.29121e-06
2	0	0	1	0	0	931.96	0.45017	0.449682	-0.00929875	7	0.131576	11	0	23.8468	-4.18148e-06
2	1	0	1	0	1	944.54	0.512771	0.512332	0.0115065	8	0.13173	11	0	12.4852	5.89516e-06
2	1	0	1	0	1	957.324	0.576696	0.576239	0.0182282	8	0.131915	11	0	25.2701	1.05038e-05
2	1	0	1	0	1	970.109	0.640619	0.640121	0.189704	8	0.132773	11	0	38.0549	0.000121433
2	1	0	1	0	1	982.635	0.696753	0.696334	1.39735	8	0.142287	11	0	50.5804	0.000973022
2	1	0	1	0	1	995.42	0.632829	0.632376	0.106445	8	0.149181	11	0	63.3652	6.73132e-05
2	1	0	1	0	1	1008.2	0.568904	0.568431	-0.00123033	8	0.149549	11	0	0.3995	-6.99357e-07
[...]
2	1	0	0	0	1	1199	0.61485	0.614403	0.0429738	10	0.184732	11	0	66.961	2.64032e-05
2	0	0	0	0	1	1211.78	0.550926	0.550447	-0.00573609	10	0.184826	11	0	3.8954	-3.15741e-06
2	0	0	1	0	1	1224.57	0.487001	0.486493	-0.0103522	10	0.184717	11	0	16.6803	-5.03629e-06
2	1	0	1	0	0	1237.12	0.475815	0.475351	0.0129929	11	0.1847	11	0	5.094	6.17618e-06
2	1	0	1	0	0	1249.91	0.539739	0.539336	0.0154221	11	0.184859	11	0	17.8788	8.31769e-06
2	1	0	1	0	0	1262.69	0.603664	0.603208	0.0422074	11	0.185125	11	0	30.6637	2.54599e-05
2	1	0	1	0	0	1275.48	0.667587	0.667123	0.561509	11	0.187665	11	0	43.4485	0.000374596
2	1	0	1	0	0	1288	0.669785	0.66932	0.548696	11	0.200078	11	0	55.974	0.000367253
2	1	0	1	0	0	1300.79	0.605861	0.605382	0.0248296	11	0.202429	11	0	68.7588	1.50314e-05
2	0	0	1	0	0	1313.57	0.541936	0.541501	-0.00731389	11	0.202452	11	0	5.893	-3.96047e-06
2	1	0	1	0	0	1326.36	0.478013	0.477527	-0.0075643	11	0.202337	11	0	18.6778	-3.61216e-06
2	0	0	0	0	1	1338.91	0.484804	0.484322	0.00949863	12	0.20236	11	0	6.8918	4.6004e-06
2	1	0	1	0	1	1351.7	0.548729	0.548271	0.0159143	12	0.202521	11	0	19.6767	8.72537e-06
2	1	0	1	0	1	1364.48	0.612652	0.612204	0.0560191	12	0.202848	11	0	32.4615	3.42952e-05
2	1	0	1	0	1	1377.26	0.676577	0.676108	0.768752	12	0.206461	11	0	45.2464	0.000519759
2	1	0	1	0	1	1389.79	0.660795	0.660342	0.378163	12	0.218424	11	0	57.7719	0.000249717
2	1	0	1	0	1	1402.58	0.596871	0.596429	0.0134343	12	0.219968	11	0	70.5567	8.0126e-06
2	0	0	1	0	1	1415.36	0.532947	0.532446	-0.0100373	12	0.219946	11	0	7.6909	-5.3443e-06
2	1	0	1	0	1	1428.14	0.469023	0.468546	-0.00789017	12	0.219827	11	0	20.4757	-3.69691e-06
2	0	0	1	0	0	1440.7	0.493793	0.49335	0.00987743	13	0.219891	11	0	8.6897	4.87302e-06
2	1	0	1	0	0	1453.48	0.557717	0.557288	0.0137853	13	0.220055	11	0	21.4745	7.68236e-06
2	1	0	0	0	0	1466.27	0.621642	0.621177	0.0807449	13	0.220476	11	0	34.2594	5.01569e-05
2	1	0	1	0	0	1479.05	0.685567	0.685096	1.03969	13	0.225605	11	0	47.0443	0.000712285
2	1	0	1	0	0	1491.58	0.651807	0.651312	0.258056	13	0.236489	11	0	59.5697	0.000168075
2	1	0	0	0	0	1504.36	0.587882	0.5874	0.00818237	13	0.237483	11	0	72.3546	4.80632e-06
2	0	0	0	0	0	1517.15	0.523958	0.523539	-0.0103552	13	0.23743	11	0	9.4887	-5.42136e-06
2	0	0	1	0	0	1529.93	0.460033	0.459568	-0.0092768	13	0.237306	11	0	22.2736	-4.26332e-06
2	1	0	1	0	1	1542.49	0.502783	0.502319	0.0144384	14	0.237411	11	0	10.4876	7.2527e-06
2	1	0	1	0	1	1555.27	0.566707	0.566272	0.0146576	14	0.237581	11	0	23.2724	8.30022e-06
2	1	0	1	0	1	1568.06	0.630632	0.630204	0.116344	14	0.238145	11	0	36.0573	7.33205e-05
2	1	0	1	0	1	1580.84	0.694555	0.694112	1.3167	14	0.245188	11	0	48.8421	0.000913938
2	1	0	1	0	1	1593.37	0.642817	0.642376	0.170694	14	0.254265	11	0	61.3676	0.000109649
2	1	0	1	0	1	1606.15	0.578892	0.578442	0.00324114	14	0.254883	11	0	0.000000000000000E+000	1.87481e-06
2	0	0	1	0	1	1618.94	0.514968	0.51449	-0.0113379	14	0.254809	11	0	11.6862	-5.83324e-06
2	0	0	1	0	1	1631.72	0.451045	0.450537	-0.0108741	14	0.254681	11	0	24.471	-4.89917e-06
2	0	0	0	0	0	1644.28	0.511772	0.511319	0.011292	15	0.254829	11	0	12.3404	5.77382e-06
2	1	0	1	0	0	1657.06	0.575696	0.575226	0.0203911	15	0.255008	11	0	25.1253	1.17295e-05
2	1	0	1	0	0	1669.85	0.63962	0.639212	0.170602	15	0.255791	11	0	37.9101	0.000109051
2	1	0	0	0	0	1682.37	0.697752	0.697318	1.41805	15	0.264794	11	0	50.4356	0.000988829
2	1	0	1	0	0	1695.16	0.633827	0.633373	0.106737	15	0.272028	11	0	63.2205	6.76043e-05
2	1	0	1	0	0	1707.94	0.569903	0.569478	-0.000458254	15	0.272394	11	0	0.5993	-2.60965e-07
2	1	0	1	0	0	1720.73	0.505979	0.505525	-0.00768436	15	0.272307	11	0	13.3842	-3.88464e-06
2	0	0	0	0	0	1731.92	0.450021	0.449649	-0.0252481	15	0.272193	11	0	24.575	-1.13528e-05

File: 20251112_2-148_004_Na_first_2_K2_01_CVA_C02.mpt
EC-Lab ASCII FILE
Nb header lines : 66

Cyclic Voltammetry Advanced

Run on channel : 2 (SN 69290)
User :
CE vs. WE compliance from -10 V to 10 V
Electrode connection : standard
Potential control : Ewe
Ewe ctrl range : min = -1.00 V, max = 1.00 V
Safety Limits :
	Do not start on E overload
Acquisition started on : 11/12/2025 17:44:04.753
Loaded Setting File :  C:\Users\User\Documents\EC-Lab\Data\Yatsuzuka\20251112_2-148_alpha_reproducibility\20251112_2-148_002_alpha_reproducibility_2_K1.mps
Saved on :
	File : 20251112_2-148_004_Na_first_2_K2_01_CVA_C02.mpr
	Directory : C:\Users\User\Documents\EC-Lab\Data\Yatsuzuka\20251112_2-148_alpha_reproducibility\
	Host : 192.109.209.127
Device : SP-150e (SN .003883)
Address : 192.109.209.128
EC-Lab for windows v11.52 (software)
Internet server v11.52 (firmware)
Command interpretor v11.50 (firmware)
Electrode material :
Initial state :
Electrolyte :
Comments :
Electrode surface area : 0.001 cm2
Characteristic mass : 0.001 g
Equivalent Weight : 0.000 g/eq.
Density : 0.000 g/cm3
Volume (V) : 0.001 cm3
Cycle Definition : Charge/Discharge alternance
Ei (V)              0.350
vs.                 Ref
ti (h:m:s)          0:00:10.0000
dti (s)             0.0000
dE/dt               10.000
dE/dt unit          mV/s
E1 (V)              0.450
vs.                 Ref
t1 (h:m:s)          0:00:0.0000
dt1 (s)             0.1000
Step percent        50
N                   10
E range min (V)     -1.000
E range max (V)     1.000
I Range             Auto
I Range min         Unset
I Range max         Unset
I Range init        Unset
Bandwidth           5
E2 (V)              0.350
vs.                 Ref
t2 (h:m:s)          0:00:0.0000
dt2 (s)             0.1000
nc cycles           9
nr                  1
Reverse Scan        0
Ef (V)              0.000
vs.                 Eoc
tf (h:m:s)          0:00:0.0000
dtf (s)             0.1000

mode	ox/red	error	control changes	Ns changes	counter inc.	time/s	control/V	Ewe/V	<I>/mA	cycle number	(Q-Qo)/C	I Range	Ns	step time/s	P/W
2	0	0	0	0	0	0.000000000000000E+000	0.349989	0.349459	-0.0171605	1	0.0000000E+000	13	0	0.000000000000000E+000	-5.9969e-06
2	1	0	1	0	0	1.7855	0.367843	0.36738	0.021744	1	5.84367e-05	13	0	1.758	7.9883e-06
2	1	0	1	0	0	3.5334	0.385322	0.384861	0.0381742	1	0.000113104	13	0	3.5059	1.46918e-05
2	1	0	1	0	0	5.2813	0.402801	0.402348	0.0226947	1	0.000164004	13	0	5.2538	9.13119e-06
2	1	0	1	0	0	7.0293	0.420281	0.419777	0.0300071	1	0.000211372	13	0	7.0018	1.25963e-05
2	1	0	1	0	0	8.7772	0.43776	0.437277	0.0218812	1	0.000255847	13	0	8.7497	9.56814e-06
2	0	0	1	0	0	10.5358	0.444653	0.444154	-0.0123522	1	0.00027601	13	0	0.4944	-5.48628e-06
2	0	0	1	0	0	12.2837	0.427173	0.426633	-0.0221208	1	0.000237248	13	0	2.2423	-9.43745e-06
2	0	0	1	0	0	14.0317	0.409693	0.409181	-0.0364872	1	0.000193704	13	0	3.9903	-1.49298e-05
2	0	0	1	0	0	15.7796	0.392214	0.391744	-0.0238297	1	0.000145793	13	0	5.7382	-9.33514e-06
2	0	0	1	0	0	17.5275	0.374735	0.374208	-0.0231872	1	9.27933e-05	13	0	7.4861	-8.67683e-06
2	0	0	1	0	0	19.2755	0.357255	0.356783	-0.0442421	1	3.38545e-05	13	0	9.2341	-1.57848e-05
2	1	0	1	0	1	20.99	0.359902	0.35942	0.0425116	2	3.59271e-05	13	0	0.9089	1.52795e-05
2	1	0	1	0	1	22.7379	0.377382	0.376919	0.0262093	2	9.08628e-05	13	0	2.6568	9.87878e-06
2	1	0	1	0	1	24.4859	0.394861	0.394378	0.0221508	2	0.000142588	13	0	4.4048	8.7358e-06
2	1	0	1	0	1	26.2338	0.41234	0.411864	0.0374918	2	0.000190925	13	0	6.1527	1.54415e-05
2	1	0	1	0	1	27.9817	0.429819	0.42934	0.0191784	2	0.000236294	13	0	7.9006	8.23403e-06
2	1	0	1	0	1	29.7297	0.447299	0.446851	0.0192889	2	0.00027911	13	0	9.6486	8.61925e-06
2	0	0	1	0	1	31.4233	0.435762	0.435296	-0.026449	2	0.00025656	13	0	1.3983	-1.15131e-05
2	0	0	1	0	1	33.1713	0.418283	0.417766	-0.0148051	2	0.000215188	13	0	3.1463	-6.18507e-06
2	0	0	1	0	1	34.9192	0.400805	0.400279	-0.0334236	2	0.000169529	13	0	4.8942	-1.33788e-05
2	0	0	1	0	1	36.6671	0.383325	0.382824	-0.0390788	2	0.000119067	13	0	6.6421	-1.49603e-05
2	0	0	1	0	1	38.4151	0.365845	0.365359	-0.023683	2	6.31536e-05	13	0	8.3901	-8.6528e-06
2	0	0	1	0	0	40.0297	0.350314	0.349866	0.0194397	3	7.20165e-06	13	0	0.000000000000000E+000	6.80127e-06
2	1	0	1	0	0	41.8376	0.368392	0.367942	0.0213636	3	6.31372e-05	13	0	1.8079	7.86058e-06
2	1	0	1	0	0	43.5855	0.385871	0.385424	0.0398744	3	0.000116601	13	0	3.5558	1.53685e-05
2	1	0	1	0	0	45.3335	0.403351	0.402872	0.024892	3	0.000166699	13	0	5.3038	1.00283e-05
2	1	0	1	0	0	47.0814	0.42083	0.420347	0.0180203	3	0.000213367	13	0	7.0517	7.57478e-06
2	1	0	1	0	0	48.8293	0.438309	0.437828	0.0337381	3	0.00025738	13	0	8.7996	1.47715e-05
2	0	0	1	0	0	50.5829	0.444152	0.443623	-0.0263392	3	0.00027503	13	0	0.5443	-1.16847e-05
2	0	0	1	0	0	52.3309	0.426673	0.426154	-0.0262338	3	0.000235895	13	0	2.2923	-1.11796e-05
2	0	0	1	0	0	54.0788	0.409195	0.408688	-0.0165971	3	0.000192278	13	0	4.0402	-6.78303e-06
2	0	0	1	0	0	55.8267	0.391715	0.391192	-0.0359868	3	0.000144249	13	0	5.7881	-1.40778e-05
2	0	0	1	0	0	57.5747	0.374235	0.373779	-0.0314341	3	9.10982e-05	13	0	7.5361	-1.17494e-05
2	0	0	1	0	0	59.3226	0.356756	0.356239	-0.0327218	3	3.21136e-05	13	0	9.284	-1.16568e-05
2	1	0	1	0	1	61.0371	0.360402	0.359935	0.0435971	4	3.84208e-05	13	0	1.0088	1.56921e-05
2	1	0	1	0	1	62.7851	0.377881	0.377375	0.0209354	4	9.32281e-05	13	0	2.7568	7.9005e-06
2	1	0	1	0	1	64.533	0.39536	0.394902	0.0359753	4	0.000144762	13	0	4.5047	1.42067e-05
2	1	0	1	0	1	66.2809	0.41284	0.412325	0.0188303	4	0.000192899	13	0	6.2526	7.76419e-06
2	1	0	1	0	1	68.0289	0.430319	0.42984	0.034026	4	0.000238074	13	0	8.0006	1.46257e-05
2	1	0	1	0	1	69.7768	0.447798	0.44729	0.0152648	4	0.000280833	13	0	9.7485	6.82778e-06
2	0	0	1	0	1	71.5305	0.434664	0.434115	-0.0136337	4	0.000254662	13	0	1.4933	-5.91858e-06
2	0	0	1	0	1	73.2783	0.417184	0.416669	-0.0348397	4	0.00021301	13	0	3.2411	-1.45166e-05
2	0	0	1	0	1	75.0263	0.399705	0.399186	-0.0174567	4	0.000167085	13	0	4.9891	-6.96847e-06
2	0	0	1	0	1	76.7742	0.382227	0.381685	-0.0391582	4	0.00011643	13	0	6.737	-1.49461e-05
2	0	0	1	0	1	78.5221	0.364747	0.36426	-0.0263578	4	6.0264e-05	13	0	8.4849	-9.60109e-06
2	1	0	1	0	0	80.2217	0.352261	0.351799	0.0327276	5	1.37335e-05	12	0	0.1948	1.15135e-05
2	1	0	1	0	0	81.9847	0.36989	0.369426	0.0352885	5	6.91362e-05	13	0	1.9578	1.30365e-05
2	1	0	1	0	0	83.7325	0.38737	0.386853	0.0218101	5	0.000122224	13	0	3.7056	8.43729e-06
2	1	0	1	0	0	85.4805	0.404849	0.404389	0.0340896	5	0.000171936	13	0	5.4536	1.37855e-05
2	1	0	1	0	0	87.2284	0.422327	0.421849	0.023868	5	0.000218267	13	0	7.2015	1.00687e-05
2	1	0	1	0	0	88.9763	0.439808	0.439308	0.0199047	5	0.000262032	13	0	8.9494	8.7443e-06
2	0	0	1	0	0	90.6701	0.443253	0.442768	-0.0304156	5	0.000273824	13	0	0.5994	-1.3467e-05
2	0	0	1	0	0	92.418	0.425773	0.425265	-0.0143608	5	0.000234532	13	0	2.3473	-6.10713e-06
2	0	0	1	0	0	94.1659	0.408295	0.407749	-0.037122	5	0.000190707	13	0	4.0952	-1.51365e-05
2	0	0	1	0	0	95.9139	0.390816	0.390296	-0.0206907	5	0.000142536	13	0	5.8432	-8.07547e-06
2	0	0	1	0	0	97.6617	0.373336	0.372819	-0.0235234	5	8.92271e-05	13	0	7.591	-8.76999e-06
2	0	0	1	0	0	99.4097	0.355857	0.355407	-0.029305	5	3.0059e-05	13	0	9.339	-1.04152e-05
2	1	0	1	0	1	101.024	0.360302	0.359829	0.030576	6	3.9179e-05	13	0	0.9988	1.10021e-05
2	1	0	1	0	1	102.772	0.377781	0.3773	0.0374781	6	9.38979e-05	13	0	2.7468	1.41405e-05
2	1	0	1	0	1	104.52	0.395259	0.394823	0.0375836	6	0.000145439	13	0	4.4947	1.48389e-05
[...]
2	1	0	1	0	0	128.924	0.439308	0.438788	0.0181144	7	0.000261648	13	0	8.8845	7.94838e-06
2	0	0	1	0	0	130.677	0.443154	0.442611	-0.0155259	7	0.000274651	13	0	0.6443	-6.87194e-06
2	0	0	1	0	0	132.425	0.425674	0.425137	-0.0167109	7	0.000235302	13	0	2.3921	-7.10443e-06
2	0	0	1	0	0	134.173	0.408195	0.407654	-0.0229163	7	0.00019153	13	0	4.1401	-9.34191e-06
2	0	0	1	0	0	135.921	0.390716	0.390186	-0.0260317	7	0.000143423	13	0	5.8881	-1.01572e-05
2	0	0	1	0	0	137.669	0.373237	0.372704	-0.0258111	7	9.01711e-05	13	0	7.6359	-9.6199e-06
2	0	0	1	0	0	139.417	0.355757	0.355325	-0.0259935	7	3.10868e-05	13	0	9.3839	-9.23614e-06
2	1	0	1	0	1	141.131	0.3614	0.360909	0.0237175	8	4.41265e-05	13	0	1.0938	8.55986e-06
2	1	0	1	0	1	142.879	0.37888	0.378397	0.0262683	8	9.86295e-05	13	0	2.8416	9.93985e-06
2	1	0	1	0	1	144.627	0.396359	0.395868	0.0243165	8	0.000149845	13	0	4.5896	9.62614e-06
2	1	0	1	0	1	146.375	0.413838	0.413288	0.0297403	8	0.000197689	13	0	6.3376	1.22913e-05
2	1	0	1	0	1	148.123	0.431318	0.430839	0.0151137	8	0.000242578	13	0	8.0854	6.51158e-06
2	1	0	1	0	1	149.871	0.448797	0.448311	0.0296085	8	0.000285116	13	0	9.8334	1.32738e-05
2	0	0	1	0	1	151.565	0.434264	0.433715	-0.0172586	8	0.000255692	13	0	1.5482	-7.48533e-06
2	0	0	1	0	1	153.313	0.416785	0.41626	-0.0219709	8	0.000214087	13	0	3.2961	-9.14562e-06
2	0	0	1	0	1	155.061	0.399306	0.398815	-0.0217812	8	0.000168163	13	0	5.0441	-8.68666e-06
2	0	0	1	0	1	156.809	0.381825	0.381348	-0.0239876	8	0.000117553	13	0	6.792	-9.14762e-06
2	0	0	1	0	1	158.556	0.364347	0.363884	-0.0265772	8	6.15046e-05	13	0	8.5399	-9.67102e-06
2	1	0	1	0	0	160.216	0.352261	0.351787	0.0309068	9	1.58254e-05	12	0	0.1948	1.08726e-05
2	1	0	1	0	0	161.979	0.36989	0.369464	0.0362611	9	7.13491e-05	13	0	1.9578	1.33972e-05
2	1	0	1	0	0	163.727	0.38737	0.386881	0.0286528	9	0.000124368	13	0	3.7056	1.10852e-05
2	1	0	1	0	0	165.475	0.404849	0.404416	0.022205	9	0.000173888	13	0	5.4536	8.98005e-06
2	1	0	1	0	0	167.223	0.422327	0.421866	0.0348472	9	0.000220183	13	0	7.2015	1.47008e-05
2	1	0	1	0	0	168.971	0.439808	0.439348	0.0155174	9	0.000263876	13	0	8.9494	6.81754e-06
2	0	0	1	0	0	170.729	0.442603	0.442095	-0.0145738	9	0.000274581	13	0	0.7142	-6.44298e-06
2	0	0	1	0	0	172.477	0.425125	0.4246	-0.0311285	9	0.00023515	13	0	2.4621	-1.32172e-05
2	0	0	1	0	0	174.225	0.407646	0.4071	-0.0226626	9	0.000191251	13	0	4.2101	-9.22595e-06
2	0	0	1	0	0	175.973	0.390166	0.389646	-0.0243127	9	0.00014308	13	0	5.9579	-9.47337e-06
2	0	0	1	0	0	177.721	0.372687	0.372201	-0.0428892	9	8.97218e-05	13	0	7.7059	-1.59634e-05
2	0	0	1	0	0	179.469	0.355209	0.354742	-0.0245119	9	3.05365e-05	13	0	9.4538	-8.6954e-06
2	1	0	1	0	1	181.179	0.361901	0.361513	0.0363153	10	4.73686e-05	13	0	1.0937	1.31284e-05
2	1	0	1	0	1	182.926	0.379379	0.378917	0.0287144	10	0.000101792	13	0	2.8416	1.08804e-05
2	1	0	1	0	1	184.674	0.396858	0.396431	0.0381887	10	0.000152899	13	0	4.5896	1.51392e-05
2	1	0	1	0	1	186.422	0.414338	0.413899	0.0288868	10	0.000200528	13	0	6.3374	1.19562e-05
2	1	0	1	0	1	188.17	0.431817	0.431326	0.0169495	10	0.000245336	13	0	8.0854	7.31074e-06
2	1	0	1	0	1	189.918	0.449295	0.448818	0.0253496	10	0.000287831	13	0	9.8333	1.13774e-05
2	0	0	1	0	1	191.677	0.433116	0.432607	-0.0287504	10	0.000254746	13	0	1.5982	-1.24376e-05
2	0	0	1	0	1	193.425	0.415635	0.415119	-0.0234588	10	0.000212856	13	0	3.3461	-9.73821e-06
2	0	0	1	0	1	195.173	0.398157	0.397653	-0.0301483	10	0.00016672	13	0	5.094	-1.19886e-05
2	0	0	1	0	1	196.921	0.380678	0.380154	-0.0286546	10	0.00011588	13	0	6.842	-1.08932e-05
2	0	0	1	0	1	198.668	0.363198	0.362705	-0.0238384	10	5.95018e-05	13	0	8.5898	-8.64633e-06
2	0	0	1	0	1	199.986	0.349989	0.349497	-0.0470155	10	1.31439e-05	13	0	9.9073	-1.64318e-05