Folder: SI_for_publications/ACS_Catal_2026/Figures_Na_K/main_figures/data/EC/20251112_2-148_alpha_reproducibility (part 29)

File: 20251112_2-148_005_gamma_reproducibility_Na1_03_CVA_C01.mpt
EC-Lab ASCII FILE
Nb header lines : 66

Cyclic Voltammetry Advanced

Run on channel : 1 (SN 69187)
User :
CE vs. WE compliance from -10 V to 10 V
Electrode connection : standard
Potential control : Ewe
Ewe ctrl range : min = -1.00 V, max = 1.00 V
Safety Limits :
	Do not start on E overload
Acquisition started on : 11/12/2025 19:47:23.448
Loaded Setting File :  C:\Users\User\Documents\EC-Lab\Data\Yatsuzuka\20251030_2-147_gamma_reproducibility\20251030_2-147_001_gamma1_K_1.mps
Saved on :
	File : 20251112_2-148_005_gamma_reproducibility_Na1_03_CVA_C01.mpr
	Directory : C:\Users\User\Documents\EC-Lab\Data\Yatsuzuka\20251112_2-148_alpha_reproducibility\
	Host : 192.109.209.127
Device : SP-150e (SN .003883)
Address : 192.109.209.128
EC-Lab for windows v11.52 (software)
Internet server v11.52 (firmware)
Command interpretor v11.50 (firmware)
Electrode material :
Initial state :
Electrolyte :
Comments :
Electrode surface area : 0.001 cm2
Characteristic mass : 0.001 g
Equivalent Weight : 0.000 g/eq.
Density : 0.000 g/cm3
Volume (V) : 0.001 cm3
Cycle Definition : Charge/Discharge alternance
Ei (V)              0.450
vs.                 Ref
ti (h:m:s)          0:00:10.0000
dti (s)             0.0000
dE/dt               5.000
dE/dt unit          mV/s
E1 (V)              0.700
vs.                 Ref
t1 (h:m:s)          0:00:0.0000
dt1 (s)             0.1000
Step percent        50
N                   10
E range min (V)     -1.000
E range max (V)     1.000
I Range             10 mA
I Range min         Unset
I Range max         Unset
I Range init        Unset
Bandwidth           5
E2 (V)              0.450
vs.                 Ref
t2 (h:m:s)          0:00:0.0000
dt2 (s)             0.1000
nc cycles           14
nr                  1
Reverse Scan        0
Ef (V)              0.000
vs.                 Eoc
tf (h:m:s)          0:00:0.0000
dtf (s)             0.1000

mode	ox/red	error	control changes	Ns changes	counter inc.	time/s	control/V	Ewe/V	<I>/mA	cycle number	(Q-Qo)/C	I Range	Ns	step time/s	P/W
2	0	0	1	0	0	232.273	0.449961	0.449659	-0.00127047	1	0.0000000E+000	11	0	0.000000000000000E+000	-5.71277e-07
2	1	0	1	0	0	245.51	0.516144	0.515943	0.00177311	1	2.19416e-05	11	0	13.1817	9.14826e-07
2	0	0	1	0	0	258.791	0.582552	0.582307	0.00161304	1	4.48783e-05	11	0	26.4632	9.39286e-07
2	1	0	1	0	0	272.073	0.64896	0.648736	0.00836891	1	9.19113e-05	11	0	39.7448	5.42921e-06
2	1	0	1	0	0	285.137	0.685708	0.685494	0.0584616	1	0.000713609	11	0	52.809	4.0075e-05
2	1	0	1	0	0	298.419	0.619301	0.619018	0.00131901	1	0.000943879	11	0	66.0905	8.16491e-07
2	1	0	1	0	0	311.7	0.552893	0.552669	0.000148025	1	0.000951285	11	0	79.3721	8.18086e-08
2	0	0	1	0	0	324.982	0.486485	0.486218	9.66331e-05	1	0.000952667	11	0	0.000000000000000E+000	4.69848e-08
2	0	0	1	0	1	338.121	0.479245	0.478965	0.00105879	2	0.000960756	11	0	5.949	5.07122e-07
2	1	0	1	0	1	351.403	0.545653	0.545461	0.0013153	2	0.000979662	11	0	19.2306	7.17447e-07
2	1	0	1	0	1	364.684	0.612061	0.611884	0.0021102	2	0.00100189	11	0	32.5121	1.2912e-06
2	1	0	1	0	1	377.966	0.678469	0.678287	0.0363523	2	0.00114147	11	0	45.7937	2.46573e-05
2	1	0	1	0	1	391.02	0.65625	0.656015	0.0119999	2	0.00177962	11	0	58.8479	7.87213e-06
2	1	0	1	0	1	404.301	0.589841	0.589584	0.000460185	2	0.0018195	11	0	72.1295	2.71318e-07
2	1	0	1	0	1	417.583	0.523433	0.523199	-8.79841e-05	2	0.00182206	11	0	0.1998	-4.60332e-08
2	0	0	1	0	1	430.865	0.457026	0.456769	-0.000317411	2	0.00182224	11	0	0.0998	-1.44983e-07
2	0	0	1	0	0	444.004	0.508704	0.508456	0.00100201	3	0.00183854	11	0	11.7384	5.09479e-07
2	1	0	1	0	0	457.285	0.575112	0.574883	0.00111386	3	0.00185711	11	0	25.02	6.4034e-07
2	1	0	1	0	0	470.567	0.64152	0.641294	0.00476877	3	0.00188866	11	0	38.3016	3.05818e-06
2	1	0	1	0	0	483.621	0.693199	0.692966	0.0683998	3	0.0023535	11	0	51.3557	4.73987e-05
2	1	0	1	0	0	496.902	0.626791	0.626609	0.00222373	3	0.00263568	11	0	64.6373	1.39341e-06
2	0	0	1	0	0	510.184	0.560382	0.560192	0.00022198	3	0.00264399	11	0	77.9189	1.24351e-07
2	1	0	1	0	0	523.466	0.493975	0.493743	0.000244337	3	0.00264496	11	0	0.000000000000000E+000	1.2064e-07
2	1	0	1	0	1	536.605	0.471756	0.471521	0.00145391	4	0.00265054	11	0	4.2941	6.85549e-07
2	1	0	1	0	1	549.886	0.538164	0.537939	0.00116832	4	0.00266918	11	0	17.5757	6.28487e-07
2	1	0	1	0	1	563.168	0.604572	0.604349	0.00204935	4	0.00268999	11	0	30.8573	1.23852e-06
2	1	0	1	0	1	576.449	0.670979	0.670742	0.0224167	4	0.00277903	11	0	44.1388	1.50358e-05
2	1	0	1	0	1	589.503	0.66374	0.66353	0.0173692	4	0.00338395	11	0	57.1929	1.1525e-05
2	1	0	1	0	1	602.785	0.597332	0.597113	0.000817732	4	0.00344024	11	0	70.4745	4.88278e-07
2	0	0	1	0	1	616.067	0.530924	0.530718	0.000432968	4	0.00344324	11	0	83.7561	2.29784e-07
2	0	0	1	0	1	629.348	0.464516	0.464273	-0.00027471	4	0.00344332	11	0	0.2996	-1.27541e-07
2	0	0	1	0	0	642.487	0.501215	0.500929	0.000964001	5	0.0034569	11	0	10.1859	4.82896e-07
2	0	0	1	0	0	655.769	0.567623	0.56744	0.00114987	5	0.00347505	11	0	23.4675	6.52485e-07
2	1	0	1	0	0	669.05	0.634031	0.633813	0.00354175	5	0.00350143	11	0	36.7491	2.24481e-06
2	1	0	1	0	0	682.239	0.700014	0.699822	0.0816816	5	0.00383987	11	0	49.938	5.71625e-05
2	1	0	0	0	0	695.386	0.63428	0.634101	0.00257653	5	0.00419333	11	0	63.0848	1.63378e-06
2	0	0	0	0	0	708.668	0.567872	0.567665	0.000585147	5	0.00420409	11	0	76.3664	3.32167e-07
2	0	0	1	0	0	721.949	0.501465	0.50121	0.000351398	5	0.00420548	11	0	0.0998	1.76124e-07
2	0	0	1	0	1	735.088	0.464266	0.464026	0.00101883	6	0.00420901	11	0	2.7961	4.72762e-07
2	0	0	1	0	1	748.37	0.530674	0.530457	0.00112341	6	0.00422733	11	0	16.0777	5.95922e-07
2	1	0	1	0	1	761.651	0.597082	0.596873	0.00184712	6	0.0042473	11	0	29.3593	1.1025e-06
2	1	0	1	0	1	774.933	0.66349	0.663271	0.0135784	6	0.0043069	11	0	42.6409	9.00617e-06
2	1	0	0	0	1	787.987	0.671229	0.671007	0.0233016	6	0.0048612	11	0	55.695	1.56355e-05
2	0	0	0	0	1	801.269	0.604821	0.604615	0.000494438	6	0.00493971	11	0	68.9766	2.98945e-07
2	1	0	0	0	1	814.55	0.538413	0.538187	0.000322814	6	0.00494385	11	0	82.2582	1.73735e-07
2	0	0	0	0	1	827.832	0.472005	0.4718	0.000269214	6	0.00494475	11	0	0.000000000000000E+000	1.27015e-07
2	1	0	0	0	0	840.971	0.493725	0.49352	0.00144305	7	0.00495676	11	0	8.688	7.12172e-07
2	1	0	0	0	0	854.253	0.560133	0.559895	0.0012673	7	0.00497574	11	0	21.9696	7.09553e-07
2	1	0	1	0	0	867.534	0.626541	0.626343	0.00255827	7	0.00499967	11	0	35.2511	1.60235e-06
2	1	0	1	0	0	880.816	0.692949	0.692743	0.0562816	7	0.00522731	11	0	48.5327	3.89887e-05
2	1	0	1	0	0	893.87	0.641769	0.641587	0.0037114	7	0.00564364	11	0	61.5869	2.38119e-06
2	1	0	1	0	0	907.151	0.575361	0.575104	0.000319278	7	0.00565846	11	0	74.8685	1.83618e-07
2	1	0	0	0	0	920.433	0.508954	0.508708	0.000347771	7	0.00566045	11	0	0.0998	1.76914e-07
2	1	0	0	0	1	933.572	0.456776	0.456522	0.00136912	8	0.00566201	11	0	1.2982	6.25035e-07
2	0	0	0	0	1	946.854	0.523184	0.522968	0.00109199	8	0.00568084	11	0	14.5798	5.71078e-07
2	1	0	0	0	1	960.135	0.589592	0.589349	0.00148082	8	0.00570079	11	0	27.8614	8.72718e-07
2	1	0	0	0	1	973.417	0.656	0.655797	0.00881912	8	0.00574489	11	0	41.143	5.78355e-06
2	1	0	1	0	1	986.471	0.678719	0.678471	0.031503	8	0.00624272	11	0	54.1971	2.13739e-05
2	1	0	1	0	1	999.752	0.612311	0.612142	0.000959843	8	0.00635511	11	0	67.4787	5.8756e-07
2	0	0	1	0	1	1013.03	0.545902	0.545654	0.000262006	8	0.00636054	11	0	80.7603	1.42964e-07
[...]
2	1	0	1	0	1	1211.52	0.553393	0.553179	0.000467829	10	0.00771913	11	0	79.2623	2.58793e-07
2	1	0	1	0	1	1224.8	0.486985	0.486791	0.000110124	10	0.00772054	11	0	1.2982	5.36072e-08
2	0	0	1	0	0	1237.94	0.478746	0.478468	0.00125883	11	0.00772805	11	0	5.6921	6.02309e-07
2	1	0	1	0	0	1251.22	0.545154	0.54492	0.00149241	11	0.00774629	11	0	18.9737	8.13242e-07
2	1	0	1	0	0	1264.5	0.611562	0.61135	0.00205585	11	0.00776681	11	0	32.2553	1.25684e-06
2	1	0	1	0	0	1277.78	0.67797	0.677749	0.025721	11	0.00786806	11	0	45.5369	1.74324e-05
2	1	0	1	0	0	1290.84	0.656749	0.656525	0.00869793	11	0.00834258	11	0	58.591	5.71041e-06
2	0	0	1	0	0	1304.12	0.590341	0.590119	0.000484057	11	0.00837264	11	0	71.8726	2.85651e-07
2	1	0	1	0	0	1317.4	0.523933	0.523707	0.000443121	11	0.00837535	11	0	85.1542	2.32065e-07
2	1	0	1	0	0	1330.68	0.457525	0.457292	-7.68316e-05	11	0.00837532	11	0	0.8988	-3.51345e-08
2	1	0	1	0	1	1343.82	0.508205	0.507983	0.00101689	12	0.00839107	11	0	11.584	5.16565e-07
2	1	0	1	0	1	1357.1	0.574613	0.574404	0.00135809	12	0.00840927	11	0	24.8655	7.80092e-07
2	0	0	1	0	1	1370.38	0.641021	0.640785	0.00396553	12	0.00843653	11	0	38.1471	2.54105e-06
2	1	0	1	0	1	1383.44	0.693698	0.693477	0.0541554	12	0.00879009	11	0	51.2013	3.75555e-05
2	1	0	1	0	1	1396.72	0.627289	0.627063	0.00139769	12	0.00900972	11	0	64.4829	8.7644e-07
2	0	0	1	0	1	1410	0.560882	0.560677	2.60689e-05	12	0.00901651	11	0	77.7644	1.46162e-08
2	1	0	1	0	1	1423.28	0.494474	0.49423	0.000393864	12	0.00901779	11	0	0.0999	1.9466e-07
2	1	0	1	0	0	1436.42	0.471256	0.47109	0.00152867	13	0.00902371	11	0	4.1942	7.20142e-07
2	1	0	1	0	0	1449.7	0.537664	0.537407	0.00129226	13	0.00904204	11	0	17.4758	6.94468e-07
2	1	0	1	0	0	1462.99	0.604072	0.603882	0.00175544	13	0.00906155	11	0	30.7574	1.06008e-06
2	1	0	1	0	0	1476.27	0.67048	0.670186	0.0167375	13	0.00913125	11	0	44.0389	1.12172e-05
2	1	0	1	0	0	1489.32	0.664239	0.664019	0.013132	13	0.0096072	11	0	57.0931	8.71993e-06
2	1	0	1	0	0	1502.6	0.59783	0.59763	0.000435621	13	0.00965137	11	0	70.3747	2.6034e-07
2	1	0	1	0	0	1515.88	0.531423	0.53124	0.000418117	13	0.00965439	11	0	83.6563	2.2212e-07
2	1	0	1	0	0	1529.17	0.465014	0.464766	0.000306979	13	0.00965513	11	0	0.000000000000000E+000	1.42673e-07
2	0	0	1	0	1	1542.3	0.500715	0.500432	0.00125501	14	0.00966909	11	0	10.1406	6.28047e-07
2	1	0	1	0	1	1555.59	0.567123	0.566902	0.00149224	14	0.00968753	11	0	23.4222	8.45955e-07
2	1	0	1	0	1	1568.87	0.633531	0.633332	0.00287781	14	0.00971192	11	0	36.7038	1.82261e-06
2	1	0	1	0	1	1582.13	0.699839	0.699562	0.0664811	14	0.00998608	11	0	49.9654	4.65076e-05
2	1	0	1	0	1	1595.2	0.63478	0.634542	0.00227975	14	0.0102749	11	0	63.0395	1.4466e-06
2	0	0	1	0	1	1608.49	0.568372	0.568125	4.18365e-05	14	0.0102843	11	0	76.3211	2.37683e-08
2	0	0	1	0	1	1621.77	0.501964	0.501696	-0.000121115	14	0.0102863	11	0	89.6027	-6.07631e-08
2	0	0	1	0	0	1634.91	0.463767	0.463523	0.00111082	15	0.0102899	11	0	2.7784	5.14892e-07
2	1	0	1	0	0	1648.19	0.530175	0.529904	0.0013912	15	0.0103083	11	0	16.06	7.37204e-07
2	1	0	1	0	0	1661.47	0.596583	0.596371	0.00143869	15	0.0103274	11	0	29.3416	8.57993e-07
2	1	0	1	0	0	1674.75	0.662991	0.662788	0.0111717	15	0.0103779	11	0	42.6232	7.40446e-06
2	1	0	0	0	0	1687.8	0.671728	0.671487	0.0196428	15	0.010841	11	0	55.6773	1.31899e-05
2	1	0	1	0	0	1701.09	0.605321	0.605158	0.000684535	15	0.0109077	11	0	68.9588	4.14252e-07
2	0	0	1	0	0	1714.37	0.538913	0.538679	0.000294017	15	0.0109113	11	0	82.2404	1.58381e-07
2	1	0	1	0	0	1727.65	0.472505	0.47226	-4.91966e-05	15	0.0109118	11	0	0.000000000000000E+000	-2.32336e-08
2	1	0	0	0	0	1732.15	0.450011	0.449792	0.00181105	15	0.0109116	11	0	1.1006	8.14594e-07

File: 20251112_2-148_005_gamma_reproducibility_Na2_01_CVA_C01.mpt
EC-Lab ASCII FILE
Nb header lines : 66

Cyclic Voltammetry Advanced

Run on channel : 1 (SN 69187)
User :
CE vs. WE compliance from -10 V to 10 V
Electrode connection : standard
Potential control : Ewe
Ewe ctrl range : min = -1.00 V, max = 1.00 V
Safety Limits :
	Do not start on E overload
Acquisition started on : 11/12/2025 20:57:12.203
Loaded Setting File :  C:\Users\User\Documents\EC-Lab\Data\Yatsuzuka\20251030_2-147_gamma_reproducibility\20251030_2-147_001_gamma1_K_1.mps
Saved on :
	File : 20251112_2-148_005_gamma_reproducibility_Na2_01_CVA_C01.mpr
	Directory : C:\Users\User\Documents\EC-Lab\Data\Yatsuzuka\20251112_2-148_alpha_reproducibility\
	Host : 192.109.209.127
Device : SP-150e (SN .003883)
Address : 192.109.209.128
EC-Lab for windows v11.52 (software)
Internet server v11.52 (firmware)
Command interpretor v11.50 (firmware)
Electrode material :
Initial state :
Electrolyte :
Comments :
Electrode surface area : 0.001 cm2
Characteristic mass : 0.001 g
Equivalent Weight : 0.000 g/eq.
Density : 0.000 g/cm3
Volume (V) : 0.001 cm3
Cycle Definition : Charge/Discharge alternance
Ei (V)              0.350
vs.                 Ref
ti (h:m:s)          0:00:10.0000
dti (s)             0.0000
dE/dt               10.000
dE/dt unit          mV/s
E1 (V)              0.450
vs.                 Ref
t1 (h:m:s)          0:00:0.0000
dt1 (s)             0.1000
Step percent        50
N                   10
E range min (V)     -1.000
E range max (V)     1.000
I Range             Auto
I Range min         Unset
I Range max         Unset
I Range init        Unset
Bandwidth           5
E2 (V)              0.350
vs.                 Ref
t2 (h:m:s)          0:00:0.0000
dt2 (s)             0.1000
nc cycles           9
nr                  1
Reverse Scan        0
Ef (V)              0.000
vs.                 Eoc
tf (h:m:s)          0:00:0.0000
dtf (s)             0.1000

mode	ox/red	error	control changes	Ns changes	counter inc.	time/s	control/V	Ewe/V	<I>/mA	cycle number	(Q-Qo)/C	I Range	Ns	step time/s	P/W
2	1	0	1	0	0	0.000000000000000E+000	0.34995	0.349762	0.00136812	1	0.0000000E+000	13	0	0.000000000000000E+000	4.78516e-07
2	1	0	1	0	0	1.7749	0.3677	0.367442	0.00229454	1	3.08781e-06	13	0	1.7476	8.4311e-07
2	1	0	1	0	0	3.5725	0.385675	0.38539	0.00112482	1	6.15242e-06	13	0	3.5452	4.33495e-07
2	0	0	1	0	0	5.3699	0.40365	0.403395	0.00148429	1	9.0733e-06	13	0	5.3426	5.98755e-07
2	1	0	1	0	0	7.1675	0.421625	0.421379	0.00190565	1	1.18399e-05	13	0	7.1402	8.03e-07
2	1	0	1	0	0	8.965	0.439601	0.439278	0.00107675	1	1.44803e-05	13	0	8.9377	4.72994e-07
2	0	0	1	0	0	10.6793	0.443245	0.442963	-0.00107765	1	1.5278e-05	13	0	0.6491	-4.7736e-07
2	0	0	1	0	0	12.4768	0.425271	0.425058	-0.000725938	1	1.31678e-05	13	0	2.4466	-3.08566e-07
2	0	0	1	0	0	14.2743	0.407295	0.407033	-0.00173845	1	1.08199e-05	13	0	4.2441	-7.07608e-07
2	0	0	1	0	0	16.0719	0.38932	0.389052	-0.00174115	1	8.25206e-06	13	0	6.0417	-6.77398e-07
2	0	0	1	0	0	17.8693	0.371345	0.371026	-0.00152163	1	5.45109e-06	13	0	7.8391	-5.64564e-07
2	0	0	1	0	0	19.6669	0.35337	0.353078	-0.00214613	1	2.41446e-06	13	0	9.6367	-7.5775e-07
2	0	0	1	0	1	21.3321	0.363306	0.363105	0.000838762	2	3.92869e-06	13	0	1.3257	3.04559e-07
2	1	0	1	0	1	23.1297	0.381281	0.381007	0.00218704	2	6.86856e-06	13	0	3.1233	8.33279e-07
2	0	0	1	0	1	24.9271	0.399256	0.399038	0.000880968	2	9.68902e-06	13	0	4.9207	3.5154e-07
2	1	0	1	0	1	26.7247	0.417231	0.416979	0.00218077	2	1.23816e-05	13	0	6.7183	9.09334e-07
2	1	0	1	0	1	28.5222	0.435207	0.434946	0.000989591	2	1.4948e-05	13	0	8.5158	4.30419e-07
2	0	0	1	0	1	30.2265	0.447739	0.447489	-0.00100547	2	1.67717e-05	13	0	0.1997	-4.49938e-07
2	1	0	1	0	1	32.0241	0.429764	0.429478	-0.00100047	2	1.47314e-05	13	0	1.9973	-4.2968e-07
2	1	0	1	0	1	33.8215	0.411789	0.411532	-0.00156716	2	1.24398e-05	13	0	3.7947	-6.44936e-07
2	1	0	1	0	1	35.6191	0.393814	0.393588	-0.000761341	2	9.9242e-06	13	0	5.5923	-2.99654e-07
2	1	0	1	0	1	37.4166	0.375838	0.375557	-0.00217891	2	7.18321e-06	13	0	7.3898	-8.18306e-07
2	0	0	1	0	1	39.2141	0.357864	0.35758	-0.00247627	2	4.19165e-06	13	0	9.1873	-8.85464e-07
2	1	0	1	0	0	40.8794	0.358813	0.358568	0.00234846	3	4.17206e-06	13	0	0.8764	8.42082e-07
2	1	0	1	0	0	42.6769	0.376787	0.376546	0.00128575	3	7.08438e-06	13	0	2.6739	4.84143e-07
2	1	0	1	0	0	44.4744	0.394763	0.394514	0.00103356	3	9.91418e-06	13	0	4.4714	4.07754e-07
2	0	0	1	0	0	46.2719	0.412737	0.41251	0.0018068	3	1.26131e-05	13	0	6.2689	7.45324e-07
2	1	0	1	0	0	48.0694	0.430712	0.430485	0.00193749	3	1.51843e-05	13	0	8.0664	8.34061e-07
2	1	0	1	0	0	49.8669	0.448687	0.448452	0.00133471	3	1.76393e-05	13	0	9.8639	5.98552e-07
2	0	0	1	0	0	51.6013	0.433958	0.43362	-0.00134691	3	1.60302e-05	14	0	1.5779	-5.84049e-07
2	0	0	1	0	0	53.3987	0.415983	0.415768	-0.000661367	3	1.37781e-05	14	0	3.3753	-2.74975e-07
2	0	0	1	0	0	55.1963	0.398008	0.397737	-0.00147805	3	1.13143e-05	14	0	5.1729	-5.87874e-07
2	0	0	1	0	0	56.9937	0.380033	0.379741	-0.00238071	3	8.63747e-06	14	0	6.9703	-9.04052e-07
2	0	0	1	0	0	58.7913	0.362058	0.361803	-0.000965812	3	5.72102e-06	14	0	8.7679	-3.49434e-07
2	0	0	1	0	1	60.4765	0.354818	0.354582	0.00217935	4	4.32707e-06	14	0	0.4494	7.72758e-07
2	1	0	1	0	1	62.2741	0.372793	0.372581	0.00169214	4	7.23293e-06	14	0	2.247	6.3046e-07
2	1	0	1	0	1	64.0715	0.390768	0.39048	0.000762252	4	1.00754e-05	14	0	4.0444	2.97644e-07
2	1	0	1	0	1	65.8691	0.408743	0.408516	0.00193644	4	1.27922e-05	14	0	5.842	7.91066e-07
2	1	0	1	0	1	67.6665	0.426718	0.426485	0.00213039	4	1.53748e-05	14	0	7.6394	9.08578e-07
2	1	0	1	0	1	69.4641	0.444693	0.444436	0.00127773	4	1.78349e-05	14	0	9.437	5.67869e-07
2	0	0	1	0	1	71.1684	0.438253	0.438002	-0.00174831	4	1.72999e-05	14	0	1.1758	-7.65764e-07
2	0	0	1	0	1	72.9659	0.420277	0.419998	-0.0013522	4	1.51112e-05	14	0	2.9733	-5.67924e-07
2	0	0	1	0	1	74.7635	0.402302	0.402065	-0.000710873	4	1.26989e-05	14	0	4.7709	-2.85817e-07
2	1	0	1	0	1	76.5609	0.384327	0.384059	-0.00154811	4	1.00776e-05	14	0	6.5683	-5.94565e-07
2	0	0	1	0	1	78.3585	0.366352	0.366032	-0.00247397	4	7.22249e-06	14	0	8.3659	-9.05553e-07
2	1	0	1	0	0	80.0237	0.350324	0.35012	0.00199855	5	4.42812e-06	14	0	0.000000000000000E+000	6.99732e-07
2	1	0	1	0	0	81.8213	0.368299	0.368058	0.000730599	5	7.28876e-06	14	0	1.7976	2.68903e-07
2	1	0	1	0	0	83.6187	0.386274	0.385986	0.00220011	5	1.01442e-05	14	0	3.595	8.49211e-07
2	1	0	1	0	0	85.4163	0.404249	0.404007	0.00144641	5	1.28703e-05	14	0	5.3926	5.8436e-07
2	1	0	1	0	0	87.2138	0.422225	0.422014	0.000958783	5	1.54695e-05	14	0	7.1901	4.04619e-07
2	1	0	1	0	0	89.0113	0.440199	0.439992	0.00202688	5	1.79435e-05	14	0	8.9876	8.9181e-07
2	0	0	1	0	0	90.7157	0.442746	0.442511	-0.000862699	5	1.85167e-05	14	0	0.6991	-3.81754e-07
2	0	0	1	0	0	92.5131	0.424771	0.424528	-0.00152009	5	1.63897e-05	14	0	2.4965	-6.45321e-07
2	0	0	1	0	0	94.3107	0.406796	0.406521	-0.00208603	5	1.40452e-05	14	0	4.2941	-8.48017e-07
2	0	0	1	0	0	96.1082	0.38882	0.388512	-0.00188068	5	1.14798e-05	14	0	6.0916	-7.30665e-07
2	0	0	1	0	0	97.9057	0.370846	0.370564	-0.00156316	5	8.69719e-06	14	0	7.8891	-5.79251e-07
2	0	0	1	0	0	99.7032	0.35287	0.352591	-0.000763483	5	5.65189e-06	14	0	9.6866	-2.69197e-07
2	1	0	1	0	1	101.368	0.363805	0.363612	0.000991442	6	7.30231e-06	14	0	1.3482	3.605e-07
2	1	0	1	0	1	103.166	0.381781	0.381499	0.00172255	6	1.01719e-05	14	0	3.1457	6.5715e-07
2	1	0	1	0	1	104.963	0.399755	0.39949	0.00227219	6	1.2925e-05	14	0	4.9432	9.07719e-07
[...]
2	1	0	1	0	0	129.903	0.449187	0.448961	0.000671572	7	2.05532e-05	14	0	9.9139	3.0151e-07
2	0	0	1	0	0	131.608	0.433759	0.433473	-0.00122254	7	1.88986e-05	14	0	1.6252	-5.29941e-07
2	0	0	1	0	0	133.405	0.415783	0.415568	-0.00063643	7	1.66614e-05	14	0	3.4227	-2.64479e-07
2	0	0	1	0	0	135.203	0.397809	0.397525	-0.00199304	7	1.42121e-05	14	0	5.2202	-7.92286e-07
2	0	0	1	0	0	137	0.379833	0.379606	-0.00183329	7	1.15526e-05	14	0	7.0177	-6.95928e-07
2	0	0	1	0	0	138.798	0.361858	0.36156	-0.000761609	7	8.64795e-06	14	0	8.8153	-2.75368e-07
2	0	0	1	0	1	140.463	0.354818	0.35457	0.00163779	8	7.29648e-06	14	0	0.4494	5.8071e-07
2	1	0	1	0	1	142.26	0.372793	0.372611	0.0024063	8	1.01847e-05	14	0	2.247	8.96617e-07
2	1	0	1	0	1	144.058	0.390768	0.390487	0.00157632	8	1.29939e-05	14	0	4.0444	6.15534e-07
2	1	0	1	0	1	145.855	0.408743	0.40854	0.00108144	8	1.56754e-05	14	0	5.842	4.41811e-07
2	1	0	1	0	1	147.653	0.426718	0.426502	0.000931924	8	1.82241e-05	14	0	7.6394	3.97468e-07
2	1	0	1	0	1	149.45	0.444693	0.444467	0.00070683	8	2.06599e-05	14	0	9.437	3.14162e-07
2	0	0	1	0	1	151.155	0.438253	0.43798	-0.00172075	8	2.01242e-05	14	0	1.1484	-7.53654e-07
2	0	0	1	0	1	152.952	0.420277	0.420005	-0.00118815	8	1.79443e-05	14	0	2.9459	-4.9903e-07
2	0	0	1	0	1	154.75	0.402302	0.402009	-0.000667975	8	1.55488e-05	14	0	4.7435	-2.68532e-07
2	0	0	1	0	1	156.547	0.384327	0.384045	-0.000984775	8	1.2945e-05	14	0	6.5409	-3.78198e-07
2	0	0	1	0	1	158.345	0.366352	0.366102	-0.0021679	8	1.0109e-05	14	0	8.3385	-7.93674e-07
2	1	0	1	0	0	160.01	0.350324	0.350105	0.00245582	9	7.3401e-06	14	0	0.000000000000000E+000	8.59793e-07
2	1	0	1	0	0	161.808	0.368299	0.368078	0.00155672	9	1.01779e-05	14	0	1.7976	5.72996e-07
2	1	0	1	0	0	163.605	0.386274	0.385978	0.000784281	9	1.30144e-05	14	0	3.595	3.02716e-07
2	0	0	1	0	0	165.403	0.404249	0.403997	0.00142723	9	1.57163e-05	14	0	5.3926	5.76597e-07
2	1	0	1	0	0	167.2	0.422225	0.422015	0.00206545	9	1.82957e-05	14	0	7.1901	8.71651e-07
2	1	0	1	0	0	168.998	0.440199	0.440011	0.00124796	9	2.07544e-05	14	0	8.9876	5.49116e-07
2	0	0	1	0	0	170.702	0.442746	0.442458	-0.00164191	9	2.13173e-05	14	0	0.6991	-7.26477e-07
2	0	0	1	0	0	172.499	0.424771	0.424455	-0.00152017	9	1.92035e-05	14	0	2.4965	-6.45246e-07
2	0	0	1	0	0	174.297	0.406796	0.406507	-0.0013995	9	1.68652e-05	14	0	4.2941	-5.68905e-07
2	0	0	1	0	0	176.095	0.38882	0.388529	-0.000855375	9	1.43152e-05	14	0	6.0916	-3.32338e-07
2	0	0	1	0	0	177.892	0.370846	0.37057	-0.000869335	9	1.15446e-05	14	0	7.8891	-3.2215e-07
2	0	0	1	0	0	179.69	0.35287	0.352656	-0.00168659	9	8.51694e-06	14	0	9.6866	-5.94786e-07
2	0	0	1	0	1	181.355	0.363805	0.363589	0.00182296	10	1.01554e-05	14	0	1.3482	6.6281e-07
2	1	0	1	0	1	183.152	0.381781	0.381503	0.00233396	10	1.30122e-05	14	0	3.1457	8.90413e-07
2	1	0	1	0	1	184.95	0.399755	0.39949	0.00198981	10	1.57476e-05	14	0	4.9432	7.94911e-07
2	1	0	1	0	1	186.747	0.41773	0.417535	0.00123768	10	1.83541e-05	14	0	6.7407	5.16774e-07
2	1	0	1	0	1	188.545	0.435706	0.435487	0.000745554	10	2.08367e-05	14	0	8.5382	3.24679e-07
2	0	0	1	0	1	190.249	0.44724	0.446952	-0.00153176	10	2.24736e-05	14	0	0.2771	-6.84624e-07
2	0	0	1	0	1	192.047	0.429264	0.428939	-0.000996791	10	2.04357e-05	14	0	2.0746	-4.27562e-07
2	0	0	1	0	1	193.844	0.411289	0.411069	-0.000598478	10	1.81501e-05	14	0	3.8721	-2.46016e-07
2	1	0	1	0	1	195.642	0.393314	0.393014	-0.00152621	10	1.56556e-05	14	0	5.6696	-5.99823e-07
2	0	0	1	0	1	197.439	0.375339	0.375074	-0.00230588	10	1.29473e-05	14	0	7.4671	-8.64874e-07
2	0	0	1	0	1	199.237	0.357365	0.357062	-0.00166822	10	9.98751e-06	14	0	9.2646	-5.95659e-07
2	0	0	0	0	1	199.971	0.35	0.349705	-0.00360995	10	8.70018e-06	14	0	9.9986	-1.26242e-06