Folder: SI_for_publications/ACS_Catal_2026/Figures_Na_K/main_figures/data/EC/20251112_2-148_alpha_reproducibility (part 24)

File: 20251112_2-148_004_Na_first_2_Na2_02_PEIS_C02.mpt
EC-Lab ASCII FILE
Nb header lines : 63

Potentio Electrochemical Impedance Spectroscopy

Run on channel : 2 (SN 69290)
User :
CE vs. WE compliance from -10 V to 10 V
Electrode connection : standard
Potential control : Ewe
Ewe ctrl range : min = -1.00 V, max = 1.00 V
Safety Limits :
	Do not start on E overload
Acquisition started on : 11/12/2025 17:10:29.402
Loaded Setting File :  C:\Users\User\Documents\EC-Lab\Data\Yatsuzuka\20251112_2-148_alpha_reproducibility\20251112_2-148_002_alpha_reproducibility_2_K1.mps
Saved on :
	File : 20251112_2-148_004_Na_first_2_Na2_02_PEIS_C02.mpr
	Directory : C:\Users\User\Documents\EC-Lab\Data\Yatsuzuka\20251112_2-148_alpha_reproducibility\
	Host : 192.109.209.127
Device : SP-150e (SN .003883)
Address : 192.109.209.128
EC-Lab for windows v11.52 (software)
Internet server v11.52 (firmware)
Command interpretor v11.50 (firmware)
Electrode material :
Initial state :
Electrolyte :
Comments :
Electrode surface area : 0.001 cm2
Characteristic mass : 0.001 g
Equivalent Weight : 0.000 g/eq.
Density : 0.000 g/cm3
Volume (V) : 0.001 cm3
Cycle Definition : Charge/Discharge alternance
Mode                Single sine
E (V)               0.4500
vs.                 Ref
tE (h:m:s)          0:00:0.0000
record              0
dI                  0.000
unit dI             mA
dt (s)              0.000
fi                  500.000
unit fi             kHz
ff                  1.000
unit ff             Hz
Nd                  6
Points              per decade
spacing             Logarithmic
Va (mV)             10.0
pw                  0.10
Na                  2
corr                0
E range min (V)     -1.000
E range max (V)     1.000
I Range             Auto
Bandwidth           5
nc cycles           0
goto Ns'            0
nr cycles           0
inc. cycle          0

freq/Hz	Re(Z)/Ohm	-Im(Z)/Ohm	|Z|/Ohm	Phase(Z)/deg	time/s	<Ewe>/V	<I>/mA	Cs/uF	Cp/uF	cycle number	I Range	|Ewe|/V	|I|/A	Ns	(Q-Qo)/mA.h	Re(Y)/Ohm-1	Im(Y)/Ohm-1	|Y|/Ohm-1	Phase(Y)/deg	Re(C)/nF	Im(C)/nF	|C|/nF	Phase(C)/deg	Re(M)	Im(M)	|M|	Phase(M)/deg	Re(Permittivity)	Im(Permittivity)	|Permittivity|	Phase(Permittivity)/deg	Re(Resistivity)/Ohm.cm	Im(Resistivity)/Ohm.cm	|Resistivity|/Ohm.cm	Phase(Resistivity)/deg	Re(Conductivity)/mS/cm	Im(Conductivity)/mS/cm	|Conductivity|/mS/cm	Phase(Conductivity)/deg	Tan(Delta)	Loss Angle(Delta)/deg	dq/mA.h
500019	13.4327	-4.00959	14.0184	16.62	201.944	0.449805	0.0194119	-0.0793842	-0.00649437	1	10	0.00467093	0.0003332	0	3.27422e-05	0.0683547	-0.0204034	0.0713348	-16.62	-6.49437	21.7572	22.7057	-106.62	0.0000000E+000	0.0000000E+000	0.0000000E+000	106.62	0.0000000E+000	0.0000000E+000	0.0000000E+000	-106.62	0.0000000E+000	0.0000000E+000	0.0000000E+000	16.62	0.0000000E+000	0.0000000E+000	0.0000000E+000	-16.62	3.35016	73.38	3.27422e-05
231063	7.54619	-1.26377	7.65129	9.50717	202.788	0.449568	0.019287	-0.545032	-0.0148693	1	10	0.0101245	0.00132324	0	3.89779e-05	0.128902	-0.0215874	0.130697	-9.50717	-14.8693	88.7871	90.0235	-99.5072	0.0000000E+000	0.0000000E+000	0.0000000E+000	99.5072	0.0000000E+000	0.0000000E+000	0.0000000E+000	-99.5072	0.0000000E+000	0.0000000E+000	0.0000000E+000	9.50717	0.0000000E+000	0.0000000E+000	0.0000000E+000	-9.50717	5.97117	80.4928	4.63451e-06
106786	6.9395	-0.355904	6.94862	2.93594	203.633	0.449542	0.020719	-4.18766	-0.010986	1	10	0.0108884	0.00156699	0	4.08532e-05	0.143724	-0.00737115	0.143913	-2.93594	-10.986	214.208	214.489	-92.9359	0.0000000E+000	0.0000000E+000	0.0000000E+000	92.9359	0.0000000E+000	0.0000000E+000	0.0000000E+000	-92.9359	0.0000000E+000	0.0000000E+000	0.0000000E+000	2.93594	0.0000000E+000	0.0000000E+000	0.0000000E+000	-2.93594	19.4982	87.0641	1.7962e-06
49352.4	6.89044	-0.126964	6.89161	1.05562	204.477	0.449544	0.0164996	-25.3999	-0.00862088	1	10	0.0105971	0.00153769	0	4.62819e-05	0.145079	-0.00267325	0.145104	-1.05562	-8.62087	467.862	467.941	-91.0556	0.0000000E+000	0.0000000E+000	0.0000000E+000	91.0556	0.0000000E+000	0.0000000E+000	0.0000000E+000	-91.0556	0.0000000E+000	0.0000000E+000	0.0000000E+000	1.05562	0.0000000E+000	0.0000000E+000	0.0000000E+000	-1.05562	54.2708	88.9444	3.84735e-06
22806.6	6.87549	-0.0485618	6.87567	0.404675	205.321	0.449561	0.0221546	-143.703	-0.00716846	1	10	0.0105001	0.00152714	0	4.68334e-05	0.145437	-0.00102722	0.14544	-0.404675	-7.16852	1014.93	1014.95	-90.4047	0.0000000E+000	0.0000000E+000	0.0000000E+000	90.4047	0.0000000E+000	0.0000000E+000	0.0000000E+000	-90.4047	0.0000000E+000	0.0000000E+000	0.0000000E+000	0.404675	0.0000000E+000	0.0000000E+000	0.0000000E+000	-0.404675	141.582	89.5953	1.01793e-06
10540.4	6.87505	0.000388886	6.87505	-0.00324092	206.165	0.449557	0.0192348	38827.7	0.000124232	1	10	0.0103617	0.00150715	0	4.76383e-05	0.145453	8.22755e-06	0.145453	0.00324092	0.124292	2196.28	2196.28	-89.9968	0.0000000E+000	0.0000000E+000	0.0000000E+000	89.9968	0.0000000E+000	0.0000000E+000	0.0000000E+000	-89.9968	0.0000000E+000	0.0000000E+000	0.0000000E+000	-0.00324092	0.0000000E+000	0.0000000E+000	0.0000000E+000	0.00324092	17678.8	89.9968	1.54008e-06
4871.56	6.87953	0.0236607	6.87957	-0.197056	207.377	0.449546	0.0197084	1380.78	0.0163327	1	10	0.0101526	0.00147576	0	4.99317e-05	0.145357	0.000499926	0.145358	0.197056	16.333	4748.85	4748.88	-89.8029	0.0000000E+000	0.0000000E+000	0.0000000E+000	89.8029	0.0000000E+000	0.0000000E+000	0.0000000E+000	-89.8029	0.0000000E+000	0.0000000E+000	0.0000000E+000	-0.197056	0.0000000E+000	0.0000000E+000	0.0000000E+000	0.197056	290.758	89.8029	1.01108e-06
2250.72	6.88364	0.0514651	6.88383	-0.42836	208.527	0.449548	0.0194157	1374	0.0767982	1	10	0.0101042	0.00146781	0	5.70991e-05	0.145264	0.00108606	0.145268	0.42836	76.7981	10272	10272.3	-89.5716	0.0000000E+000	0.0000000E+000	0.0000000E+000	89.5716	0.0000000E+000	0.0000000E+000	0.0000000E+000	-89.5716	0.0000000E+000	0.0000000E+000	0.0000000E+000	-0.42836	0.0000000E+000	0.0000000E+000	0.0000000E+000	0.42836	133.754	89.5716	5.25899e-06
1040.33	6.89941	0.105186	6.90021	-0.873441	209.457	0.449552	0.0166636	1454.43	0.337971	1	10	0.0103496	0.0014999	0	6.23267e-05	0.144906	0.00220918	0.144923	0.873441	337.972	22168.4	22171	-89.1266	0.0000000E+000	0.0000000E+000	0.0000000E+000	89.1266	0.0000000E+000	0.0000000E+000	0.0000000E+000	-89.1266	0.0000000E+000	0.0000000E+000	0.0000000E+000	-0.873441	0.0000000E+000	0.0000000E+000	0.0000000E+000	0.873441	65.5927	89.1266	3.62964e-06
480.769	6.91133	0.204786	6.91436	-1.6972	210.387	0.449546	0.0192982	1616.53	1.41801	1	10	0.0104074	0.00150519	0	6.54814e-05	0.144563	0.00428346	0.144626	1.6972	1418	47856.5	47877.5	-88.3028	0.0000000E+000	0.0000000E+000	0.0000000E+000	88.3028	0.0000000E+000	0.0000000E+000	0.0000000E+000	-88.3028	0.0000000E+000	0.0000000E+000	0.0000000E+000	-1.6972	0.0000000E+000	0.0000000E+000	0.0000000E+000	1.6972	33.7491	88.3028	1.58655e-06
222.061	6.93623	0.415818	6.94868	-3.43071	211.312	0.449549	0.0150434	1723.63	6.1723	1	10	0.0104259	0.00150042	0	6.95105e-05	0.143654	0.00861189	0.143912	3.43071	6172.29	102960	103144	-86.5693	0.0000000E+000	0.0000000E+000	0.0000000E+000	86.5693	0.0000000E+000	0.0000000E+000	0.0000000E+000	-86.5693	0.0000000E+000	0.0000000E+000	0.0000000E+000	-3.43071	0.0000000E+000	0.0000000E+000	0.0000000E+000	3.43071	16.6809	86.5693	1.81866e-06
102.667	6.9757	0.853506	7.02772	-6.9757	212.248	0.449545	0.0198706	1816.27	26.7895	1	10	0.0104288	0.00148395	0	7.56471e-05	0.14124	0.0172813	0.142294	6.9757	26789.5	218951	220584	-83.0243	0.0000000E+000	0.0000000E+000	0.0000000E+000	83.0243	0.0000000E+000	0.0000000E+000	0.0000000E+000	-83.0243	0.0000000E+000	0.0000000E+000	0.0000000E+000	-6.9757	0.0000000E+000	0.0000000E+000	0.0000000E+000	6.9757	8.173	83.0243	3.63925e-06
47.4443	7.05788	1.75775	7.27347	-13.9849	213.159	0.44954	0.0147562	1908.44	111.458	1	10	0.0104369	0.00143493	0	8.20866e-05	0.133411	0.0332257	0.137486	13.9849	111458	447535	461205	-76.0151	0.0000000E+000	0.0000000E+000	0.0000000E+000	76.0151	0.0000000E+000	0.0000000E+000	0.0000000E+000	-76.0151	0.0000000E+000	0.0000000E+000	0.0000000E+000	-13.9849	0.0000000E+000	0.0000000E+000	0.0000000E+000	13.9849	4.01529	76.0151	3.2968e-06
21.9144	7.18771	3.61899	8.04738	-26.7251	214.027	0.449533	0.0161192	2006.79	405.852	1	10	0.0104468	0.00129816	0	8.85196e-05	0.11099	0.0558828	0.124264	26.7251	405852	806068	902476	-63.2749	0.0000000E+000	0.0000000E+000	0.0000000E+000	63.2749	0.0000000E+000	0.0000000E+000	0.0000000E+000	-63.2749	0.0000000E+000	0.0000000E+000	0.0000000E+000	-26.7251	0.0000000E+000	0.0000000E+000	0.0000000E+000	26.7251	1.98611	63.2749	5.31847e-06
10.1329	7.38482	7.60813	10.6028	-45.8533	214.954	0.44954	0.0152354	2064.46	1062.97	1	10	0.0104506	0.000985648	0	9.18485e-05	0.0656901	0.0676764	0.0943148	45.8533	1.06297e+06	1.03177e+06	1.48137e+06	-44.1467	0.0000000E+000	0.0000000E+000	0.0000000E+000	44.1467	0.0000000E+000	0.0000000E+000	0.0000000E+000	-44.1467	0.0000000E+000	0.0000000E+000	0.0000000E+000	-45.8533	0.0000000E+000	0.0000000E+000	0.0000000E+000	45.8533	0.970649	44.1467	-6.30758e-08
4.68375	7.73472	16.0778	17.8416	-64.3088	216.004	0.449559	0.000630163	2113.48	1716.27	1	11	0.0104581	0.000586165	0	0.000100946	0.0242983	0.050508	0.0560488	64.3088	1.71627e+06	825662	1.90455e+06	-25.6912	0.0000000E+000	0.0000000E+000	0.0000000E+000	25.6912	0.0000000E+000	0.0000000E+000	0.0000000E+000	-25.6912	0.0000000E+000	0.0000000E+000	0.0000000E+000	-64.3088	0.0000000E+000	0.0000000E+000	0.0000000E+000	64.3088	0.481079	25.6912	7.37945e-06
2.16533	8.6684	33.9215	35.0116	-75.6653	217.718	0.449567	0.00135968	2166.81	2033.99	1	11	0.010456	0.000298643	0	9.13606e-05	0.00707156	0.0276727	0.028562	75.6653	2.03399e+06	519771	2.09935e+06	-14.3347	0.0000000E+000	0.0000000E+000	0.0000000E+000	14.3347	0.0000000E+000	0.0000000E+000	0.0000000E+000	-14.3347	0.0000000E+000	0.0000000E+000	0.0000000E+000	-75.6653	0.0000000E+000	0.0000000E+000	0.0000000E+000	75.6653	0.255543	14.3347	-3.63579e-06
1.00006	10.098	72.1908	72.8936	-82.0372	222.058	0.449566	0.000612343	2204.5	2162.2	1	12	0.0104584	0.000143474	0	0.000101129	0.00190044	0.0135864	0.0137186	82.0372	2.1622e+06	302446	2.18325e+06	-7.9628	0.0000000E+000	0.0000000E+000	0.0000000E+000	7.9628	0.0000000E+000	0.0000000E+000	0.0000000E+000	-7.9628	0.0000000E+000	0.0000000E+000	0.0000000E+000	-82.0372	0.0000000E+000	0.0000000E+000	0.0000000E+000	82.0372	0.139879	7.9628	4.9733e-06

File: 20251112_2-148_004_Na_first_2_Na2_03_CVA_C02.mpt
EC-Lab ASCII FILE
Nb header lines : 66

Cyclic Voltammetry Advanced

Run on channel : 2 (SN 69290)
User :
CE vs. WE compliance from -10 V to 10 V
Electrode connection : standard
Potential control : Ewe
Ewe ctrl range : min = -1.00 V, max = 1.00 V
Safety Limits :
	Do not start on E overload
Acquisition started on : 11/12/2025 17:10:29.402
Loaded Setting File :  C:\Users\User\Documents\EC-Lab\Data\Yatsuzuka\20251112_2-148_alpha_reproducibility\20251112_2-148_002_alpha_reproducibility_2_K1.mps
Saved on :
	File : 20251112_2-148_004_Na_first_2_Na2_03_CVA_C02.mpr
	Directory : C:\Users\User\Documents\EC-Lab\Data\Yatsuzuka\20251112_2-148_alpha_reproducibility\
	Host : 192.109.209.127
Device : SP-150e (SN .003883)
Address : 192.109.209.128
EC-Lab for windows v11.52 (software)
Internet server v11.52 (firmware)
Command interpretor v11.50 (firmware)
Electrode material :
Initial state :
Electrolyte :
Comments :
Electrode surface area : 0.001 cm2
Characteristic mass : 0.001 g
Equivalent Weight : 0.000 g/eq.
Density : 0.000 g/cm3
Volume (V) : 0.001 cm3
Cycle Definition : Charge/Discharge alternance
Ei (V)              0.450
vs.                 Ref
ti (h:m:s)          0:00:10.0000
dti (s)             0.0000
dE/dt               5.000
dE/dt unit          mV/s
E1 (V)              0.700
vs.                 Ref
t1 (h:m:s)          0:00:0.0000
dt1 (s)             0.1000
Step percent        50
N                   10
E range min (V)     -1.000
E range max (V)     1.000
I Range             10 mA
I Range min         Unset
I Range max         Unset
I Range init        Unset
Bandwidth           5
E2 (V)              0.450
vs.                 Ref
t2 (h:m:s)          0:00:0.0000
dt2 (s)             0.1000
nc cycles           14
nr                  1
Reverse Scan        0
Ef (V)              0.000
vs.                 Eoc
tf (h:m:s)          0:00:0.0000
dtf (s)             0.1000

mode	ox/red	error	control changes	Ns changes	counter inc.	time/s	control/V	Ewe/V	<I>/mA	cycle number	(Q-Qo)/C	I Range	Ns	step time/s	P/W
2	1	0	1	0	0	232.187	0.450021	0.449535	0.0156122	1	0.0000000E+000	11	0	0.000000000000000E+000	7.01821e-06
2	1	0	1	0	0	245.027	0.51422	0.513773	0.012208	1	0.000174433	11	0	12.7849	6.27215e-06
2	1	0	1	0	0	257.912	0.578643	0.578209	0.0156586	1	0.000359512	11	0	25.6696	9.05394e-06
2	1	0	1	0	0	270.797	0.643066	0.642655	0.0609062	1	0.000743854	11	0	38.5543	3.91417e-05
2	1	0	1	0	0	283.432	0.693756	0.693282	0.425454	1	0.00393239	11	0	51.1897	0.00029496
2	1	0	1	0	0	296.317	0.629333	0.628892	0.0166869	1	0.00574838	11	0	64.0744	1.04942e-05
2	1	0	1	0	0	309.201	0.56491	0.564452	-0.00758318	1	0.00574767	11	0	6.5921	-4.28034e-06
2	0	0	1	0	0	322.086	0.500485	0.500057	-0.0101824	1	0.00563094	11	0	19.4769	-5.09178e-06
2	0	0	1	0	1	334.74	0.462831	0.462383	0.0114186	2	0.00555234	11	0	2.5521	5.27978e-06
2	1	0	0	0	1	347.625	0.527254	0.526765	0.0134721	2	0.00571557	11	0	15.4368	7.09665e-06
2	1	0	1	0	1	360.51	0.591677	0.591221	0.0172588	2	0.00589378	11	0	28.3215	1.02038e-05
2	1	0	1	0	1	373.395	0.656101	0.65565	0.0937732	2	0.00639748	11	0	41.2062	6.14824e-05
2	1	0	0	0	1	386.02	0.680772	0.68032	0.244393	2	0.0101835	11	0	53.8316	0.000166265
2	1	0	1	0	1	398.905	0.616349	0.615905	0.00435846	2	0.0111436	11	0	66.7163	2.6844e-06
2	0	0	1	0	1	411.789	0.551924	0.551486	-0.00798213	2	0.0110889	11	0	9.4888	-4.40203e-06
2	0	0	1	0	1	424.674	0.487501	0.487047	-0.010199	2	0.0109653	11	0	22.3735	-4.96739e-06
2	1	0	1	0	0	437.328	0.475815	0.475354	0.0129643	3	0.0109447	11	0	5.094	6.16262e-06
2	1	0	1	0	0	450.213	0.540238	0.539807	0.0124346	3	0.0111066	11	0	17.9787	6.71226e-06
2	1	0	0	0	0	463.098	0.604662	0.604197	0.0195151	3	0.0112972	11	0	30.8634	1.1791e-05
2	1	0	1	0	0	475.982	0.669085	0.668616	0.159198	3	0.0120645	11	0	43.7481	0.000106442
2	1	0	1	0	0	488.608	0.667787	0.667328	0.133809	3	0.015967	11	0	56.3735	8.92943e-05
2	1	0	1	0	0	501.493	0.603363	0.602913	0.000215082	3	0.0164435	11	0	0.000000000000000E+000	1.29676e-07
2	0	0	0	0	0	514.377	0.53894	0.538496	-0.0081444	3	0.0163611	11	0	12.2855	-4.38573e-06
2	0	0	1	0	0	527.262	0.474516	0.474077	-0.0114354	3	0.016233	11	0	25.1702	-5.42126e-06
2	1	0	1	0	1	539.916	0.488799	0.488314	0.0128274	4	0.0162739	11	0	7.7459	6.26382e-06
2	1	0	1	0	1	552.801	0.553223	0.552793	0.0122426	4	0.0164359	11	0	20.6306	6.76765e-06
2	1	0	1	0	1	565.686	0.617647	0.617175	0.0257049	4	0.0166517	11	0	33.5154	1.58644e-05
2	1	0	1	0	1	578.57	0.682071	0.681626	0.276865	4	0.0179043	11	0	46.4001	0.000188718
2	1	0	1	0	1	591.196	0.654802	0.654385	0.0693957	4	0.021497	11	0	59.0255	4.54115e-05
2	1	0	1	0	1	604.081	0.590379	0.589888	-0.00317847	4	0.0217071	11	0	1.8978	-1.87494e-06
2	1	0	1	0	1	616.965	0.525955	0.525539	-0.00808406	4	0.0216084	11	0	14.7825	-4.24849e-06
2	0	0	0	0	1	629.85	0.461532	0.461055	-0.0116966	4	0.0214765	11	0	27.6672	-5.39276e-06
2	0	0	0	0	0	642.504	0.501784	0.501344	0.0113574	5	0.0215783	11	0	10.2878	5.69398e-06
2	0	0	1	0	0	655.389	0.566207	0.565768	0.0121809	5	0.0217421	11	0	23.1725	6.89157e-06
2	1	0	1	0	0	668.274	0.630632	0.630146	0.0360371	5	0.0220022	11	0	36.0573	2.27087e-05
2	1	0	1	0	0	681.158	0.695055	0.694635	0.45549	5	0.0240927	11	0	48.942	0.000316399
2	1	0	0	0	0	693.784	0.641818	0.641367	0.0333681	5	0.026855	11	0	61.5674	2.14012e-05
2	0	0	1	0	0	706.668	0.577394	0.576978	-0.00651157	5	0.0269194	11	0	5.094	-3.75703e-06
2	0	0	1	0	0	719.553	0.512971	0.512484	-0.0104374	5	0.02681	11	0	17.9787	-5.349e-06
2	0	0	1	0	1	732.207	0.450345	0.449838	0.00759694	6	0.0266768	11	0	0.000000000000000E+000	3.4174e-06
2	0	0	1	0	1	745.092	0.514768	0.514282	0.0114419	6	0.026837	11	0	12.8847	5.88436e-06
2	0	0	1	0	1	757.977	0.579193	0.578738	0.0133321	6	0.0270042	11	0	25.7695	7.71579e-06
2	1	0	0	0	1	770.862	0.643616	0.643181	0.0547195	6	0.0273428	11	0	38.6542	3.51946e-05
2	1	0	1	0	1	783.487	0.693257	0.692819	0.404289	6	0.0304268	11	0	51.2796	0.0002801
2	1	0	1	0	1	796.372	0.628833	0.628386	0.0137875	6	0.032117	11	0	64.1643	8.66389e-06
2	0	0	0	0	1	809.256	0.56441	0.563905	-0.00814565	6	0.0321031	11	0	7.3912	-4.59338e-06
2	0	0	1	0	1	822.141	0.499987	0.499559	-0.00946906	6	0.0319865	11	0	20.2759	-4.73035e-06
2	0	0	1	0	0	834.795	0.463329	0.462873	0.0109118	7	0.03191	11	0	2.5969	5.05076e-06
2	1	0	1	0	0	847.68	0.527754	0.527301	0.0126454	7	0.0320712	11	0	15.4817	6.66793e-06
2	1	0	1	0	0	860.565	0.592177	0.59175	0.0166858	7	0.0322454	11	0	28.3664	9.87384e-06
2	1	0	1	0	0	873.449	0.6566	0.656168	0.0918198	7	0.0327299	11	0	41.2511	6.02492e-05
2	1	0	1	0	0	886.075	0.680272	0.679831	0.236506	7	0.0364453	11	0	53.8765	0.000160784
2	0	0	1	0	0	898.96	0.615849	0.615426	0.00417767	7	0.0373517	11	0	66.7612	2.57104e-06
2	0	0	1	0	0	911.844	0.551426	0.550987	-0.00887249	7	0.0372939	11	0	10.1879	-4.88862e-06
2	0	0	1	0	0	924.729	0.487001	0.486549	-0.0104963	7	0.0371722	11	0	23.0727	-5.10696e-06
2	1	0	1	0	1	937.383	0.476315	0.475822	0.0119873	8	0.0371557	11	0	5.1939	5.7038e-06
2	1	0	0	0	1	950.268	0.540738	0.540305	0.0123459	8	0.0373172	11	0	18.0786	6.67058e-06
2	1	0	1	0	1	963.153	0.605161	0.604724	0.0206294	8	0.0375055	11	0	30.9633	1.24751e-05
2	1	0	1	0	1	976.037	0.669585	0.669122	0.158392	8	0.0382597	11	0	43.848	0.000105983
2	1	0	0	0	1	988.663	0.667288	0.666803	0.125049	8	0.042103	11	0	56.4734	8.33827e-05
2	0	0	1	0	1	1001.55	0.602865	0.602367	-0.00113044	8	0.0425394	11	0	0.000000000000000E+000	-6.80939e-07
[...]
2	1	0	1	0	1	1206.72	0.576895	0.576453	-0.0053706	10	0.0529215	11	0	5.3936	-3.0959e-06
2	0	0	1	0	1	1219.61	0.512471	0.51204	-0.0093521	10	0.0528136	11	0	18.2783	-4.78864e-06
2	1	0	1	0	0	1232.26	0.450844	0.45037	0.00984038	11	0.0526846	11	0	0.1549	4.43181e-06
2	1	0	0	0	0	1245.15	0.515268	0.514831	0.0130045	11	0.0528447	11	0	13.0396	6.69513e-06
2	0	0	1	0	0	1258.03	0.579691	0.579244	0.0133036	11	0.0530105	11	0	25.9243	7.70604e-06
2	1	0	1	0	0	1270.92	0.644116	0.643683	0.0557541	11	0.0533457	11	0	38.8091	3.5888e-05
2	1	0	0	0	0	1283.54	0.692758	0.692285	0.397562	11	0.0564733	11	0	51.4344	0.000275227
2	0	0	0	0	0	1296.43	0.628334	0.627865	0.0123005	11	0.0581078	11	0	64.3192	7.72304e-06
2	0	0	1	0	0	1309.31	0.56391	0.563446	-0.00748906	11	0.0580889	11	0	7.4911	-4.21968e-06
2	0	0	1	0	0	1322.2	0.499487	0.499012	-0.00977781	11	0.0579738	11	0	20.3758	-4.87925e-06
2	1	0	1	0	1	1334.85	0.463829	0.463387	0.0133806	12	0.057901	11	0	2.6968	6.2004e-06
2	0	0	1	0	1	1347.73	0.528252	0.527806	0.0113496	12	0.0580617	11	0	15.5815	5.9904e-06
2	1	0	1	0	1	1360.62	0.592676	0.592205	0.0160776	12	0.0582349	11	0	28.4663	9.52127e-06
2	1	0	0	0	1	1373.5	0.6571	0.656683	0.0919083	12	0.058717	11	0	41.351	6.03546e-05
2	1	0	1	0	1	1386.13	0.679773	0.679348	0.226739	12	0.0624502	11	0	53.9764	0.000154035
2	1	0	1	0	1	1399.01	0.615349	0.614866	0.00427499	12	0.0633134	11	0	66.8611	2.62854e-06
2	1	0	0	0	1	1411.9	0.550926	0.550485	-0.00703167	12	0.0632529	11	0	10.1879	-3.87083e-06
2	0	0	1	0	1	1424.78	0.486503	0.486051	-0.0108315	12	0.0631324	11	0	23.0726	-5.26464e-06
2	1	0	1	0	0	1437.44	0.476813	0.476354	0.0112158	13	0.0631186	11	0	5.3487	5.34269e-06
2	1	0	1	0	0	1450.32	0.541238	0.54081	0.0133172	13	0.0632793	11	0	18.2335	7.20205e-06
2	1	0	1	0	0	1463.21	0.605661	0.605259	0.0190114	13	0.0634653	11	0	31.1182	1.15068e-05
2	1	0	1	0	0	1476.09	0.670084	0.669652	0.162004	13	0.0642231	11	0	44.0029	0.000108486
2	1	0	1	0	0	1488.72	0.666788	0.666278	0.121571	13	0.0680939	11	0	56.6283	8.10002e-05
2	1	0	1	0	0	1501.6	0.602365	0.601879	-0.000733737	13	0.0685102	11	0	0.2996	-4.41621e-07
2	0	0	1	0	0	1514.49	0.537942	0.537537	-0.00870743	13	0.0684262	11	0	13.1843	-4.68057e-06
2	0	0	1	0	0	1527.37	0.473517	0.473051	-0.010986	13	0.0683013	11	0	26.0691	-5.19696e-06
2	1	0	1	0	1	1540.03	0.489799	0.489332	0.0128755	14	0.0683473	11	0	7.9457	6.30041e-06
2	0	0	0	0	1	1552.91	0.554222	0.553782	0.0119641	14	0.0685086	11	0	20.8304	6.62552e-06
2	1	0	1	0	1	1565.8	0.618645	0.618213	0.024245	14	0.0687193	11	0	33.7151	1.49886e-05
2	1	0	1	0	1	1578.68	0.68307	0.682618	0.284848	14	0.0699883	11	0	46.5999	0.000194442
2	1	0	0	0	1	1591.31	0.653804	0.653342	0.062084	14	0.0735355	11	0	59.2252	4.05621e-05
2	1	0	1	0	1	1604.19	0.58938	0.588862	-0.00370905	14	0.0737137	11	0	2.497	-2.18412e-06
2	0	0	1	0	1	1617.08	0.524956	0.524477	-0.010294	14	0.0736145	11	0	15.3818	-5.39899e-06
2	1	0	1	0	1	1629.96	0.460533	0.4601	-0.00974072	14	0.0734855	11	0	28.2665	-4.4817e-06
2	1	0	1	0	0	1642.61	0.502783	0.502317	0.0132218	15	0.0735927	11	0	10.4876	6.64154e-06
2	1	0	1	0	0	1655.5	0.567206	0.566747	0.0134899	15	0.0737554	11	0	23.3723	7.64534e-06
2	1	0	0	0	0	1668.38	0.63163	0.631214	0.0355428	15	0.0740096	11	0	36.257	2.24351e-05
2	1	0	0	0	0	1681.27	0.696054	0.695611	0.480363	15	0.0761822	11	0	49.1418	0.000334146
2	1	0	1	0	0	1693.89	0.64082	0.640385	0.0295571	15	0.0788848	11	0	61.7671	1.89279e-05
2	0	0	1	0	0	1706.78	0.576395	0.575954	-0.00731446	15	0.0789325	11	0	5.1939	-4.21279e-06
2	1	0	0	0	0	1719.66	0.511972	0.511507	-0.00866619	15	0.0788244	11	0	18.0786	-4.43281e-06
2	0	0	0	0	0	1732.05	0.450021	0.449573	-0.0221195	15	0.0786957	11	0	30.468	-9.94433e-06