Folder: SI_for_publications/ACS_Catal_2026/Figures_Na_K/main_figures/data/EC/20251112_2-148_alpha_reproducibility (part 6)

File: 20251112_2-148_001_alpha_reproducibility_1_Na2_02_PEIS_C01.mpt
EC-Lab ASCII FILE
Nb header lines : 63

Potentio Electrochemical Impedance Spectroscopy

Run on channel : 1 (SN 69187)
User :
CE vs. WE compliance from -10 V to 10 V
Electrode connection : standard
Potential control : Ewe
Ewe ctrl range : min = -1.00 V, max = 1.00 V
Safety Limits :
	Do not start on E overload
Acquisition started on : 11/12/2025 15:13:50.824
Loaded Setting File :  C:\Users\User\Documents\EC-Lab\Data\Yatsuzuka\20251030_2-147_gamma_reproducibility\20251030_2-147_001_gamma1_K_1.mps
Saved on :
	File : 20251112_2-148_001_alpha_reproducibility_1_Na2_02_PEIS_C01.mpr
	Directory : C:\Users\User\Documents\EC-Lab\Data\Yatsuzuka\20251112_2-148_alpha_reproducibility\
	Host : 192.109.209.127
Device : SP-150e (SN .003883)
Address : 192.109.209.128
EC-LAB for windows v11.52 (software)
Internet server v11.52 (firmware)
Command interpretor v11.50 (firmware)
Electrode material :
Initial state :
Electrolyte :
Comments :
Electrode surface area : 0.001 cm2
Characteristic mass : 0.001 g
Equivalent Weight : 0.000 g/eq.
Density : 0.000 g/cm3
Volume (V) : 0.001 cm3
Cycle Definition : Charge/Discharge alternance
Mode                Single sine
E (V)               0.4500
vs.                 Ref
tE (h:m:s)          0:00:0.0000
record              0
dI                  0.000
unit dI             mA
dt (s)              0.000
fi                  500.000
unit fi             kHz
ff                  1.000
unit ff             Hz
Nd                  6
Points              per decade
spacing             Logarithmic
Va (mV)             10.0
pw                  0.10
Na                  2
corr                0
E range min (V)     -1.000
E range max (V)     1.000
I Range             Auto
Bandwidth           5
nc cycles           0
goto Ns'            0
nr cycles           0
inc. cycle          0

freq/Hz	Re(Z)/Ohm	-Im(Z)/Ohm	|Z|/Ohm	Phase(Z)/deg	time/s	<Ewe>/V	<I>/mA	Cs/uF	Cp/uF	cycle number	I Range	|Ewe|/V	|I|/A	Ns	(Q-Qo)/mA.h	Re(Y)/Ohm-1	Im(Y)/Ohm-1	|Y|/Ohm-1	Phase(Y)/deg	Re(C)/nF	Im(C)/nF	|C|/nF	Phase(C)/deg	Re(M)	Im(M)	|M|	Phase(M)/deg	Re(Permittivity)	Im(Permittivity)	|Permittivity|	Phase(Permittivity)/deg	Re(Resistivity)/Ohm.cm	Im(Resistivity)/Ohm.cm	|Resistivity|/Ohm.cm	Phase(Resistivity)/deg	Re(Conductivity)/mS/cm	Im(Conductivity)/mS/cm	|Conductivity|/mS/cm	Phase(Conductivity)/deg	Tan(Delta)	Loss Angle(Delta)/deg	dq/mA.h	Pwe/W	Rwe/Ohm
500019	17.4776	-1.96374	17.5876	6.41072	201.599	0.450133	0.0106155	-0.162088	-0.00202072	1	10	0.0058099	0.000330341	0	2.15588e-05	0.0565028	-0.00634851	0.0568584	-6.41072	-2.02072	17.9847	18.0979	-96.4107	0.0000000E+000	0.0000000E+000	0.0000000E+000	96.4107	0.0000000E+000	0.0000000E+000	0.0000000E+000	-96.4107	0.0000000E+000	0.0000000E+000	0.0000000E+000	6.41072	0.0000000E+000	0.0000000E+000	0.0000000E+000	-6.41072	8.90016	83.5893	2.15588e-05	4.77839e-06	42403.3
231063	10.7273	-0.697683	10.75	3.72117	202.308	0.449796	0.0127082	-0.987262	-0.00415848	1	10	0.0106674	0.000992319	0	2.58201e-05	0.0928275	-0.00603732	0.0930236	-3.72117	-4.15848	63.9392	64.0742	-93.7212	0.0000000E+000	0.0000000E+000	0.0000000E+000	93.7212	0.0000000E+000	0.0000000E+000	0.0000000E+000	-93.7212	0.0000000E+000	0.0000000E+000	0.0000000E+000	3.72117	0.0000000E+000	0.0000000E+000	0.0000000E+000	-3.72117	15.3756	86.2788	3.05566e-06	5.71609e-06	35394.2
106786	9.86544	-0.092042	9.86587	0.534539	203.288	0.449754	0.0143145	-16.1927	-0.00140935	1	10	0.0108339	0.00109812	0	2.67858e-05	0.101355	-0.000945617	0.10136	-0.534539	-1.40935	151.06	151.067	-90.5345	0.0000000E+000	0.0000000E+000	0.0000000E+000	90.5345	0.0000000E+000	0.0000000E+000	0.0000000E+000	-90.5345	0.0000000E+000	0.0000000E+000	0.0000000E+000	0.534539	0.0000000E+000	0.0000000E+000	0.0000000E+000	-0.534539	107.184	89.4655	-5.73272e-07	6.43799e-06	31419.5
49352.4	9.80437	0.0308627	9.80441	-0.180358	204.132	0.449762	0.0127082	104.491	0.00103539	1	10	0.0105959	0.00108072	0	3.02382e-05	0.101994	0.000321063	0.101995	0.180358	1.03539	328.919	328.92	-89.8196	0.0000000E+000	0.0000000E+000	0.0000000E+000	89.8196	0.0000000E+000	0.0000000E+000	0.0000000E+000	-89.8196	0.0000000E+000	0.0000000E+000	0.0000000E+000	-0.180358	0.0000000E+000	0.0000000E+000	0.0000000E+000	0.180358	317.677	89.8196	1.39355e-06	5.71565e-06	35391.5
22806.6	9.82576	0.0531305	9.8259	-0.309811	204.976	0.449754	0.00939125	131.346	0.00384025	1	10	0.0104372	0.00106221	0	3.24983e-05	0.10177	0.000550299	0.101772	0.309811	3.8402	710.201	710.212	-89.6902	0.0000000E+000	0.0000000E+000	0.0000000E+000	89.6902	0.0000000E+000	0.0000000E+000	0.0000000E+000	-89.6902	0.0000000E+000	0.0000000E+000	0.0000000E+000	-0.309811	0.0000000E+000	0.0000000E+000	0.0000000E+000	0.309811	184.936	89.6902	4.82169e-08	4.22375e-06	47890.7
10540.4	9.82718	0.0492524	9.8273	-0.287156	205.821	0.449761	0.0122256	306.575	0.00770057	1	10	0.010224	0.00104037	0	3.76668e-05	0.101756	0.000509987	0.101757	0.287156	7.70055	1536.47	1536.49	-89.7128	0.0000000E+000	0.0000000E+000	0.0000000E+000	89.7128	0.0000000E+000	0.0000000E+000	0.0000000E+000	-89.7128	0.0000000E+000	0.0000000E+000	0.0000000E+000	-0.287156	0.0000000E+000	0.0000000E+000	0.0000000E+000	0.287156	199.527	89.7128	2.2652e-06	5.49857e-06	36788.6
4871.56	9.86789	0.0556569	9.86804	-0.323157	206.812	0.449766	0.0136511	586.993	0.0186728	1	10	0.0107806	0.00109247	0	4.09521e-05	0.101336	0.000571554	0.101337	0.323157	18.6729	3310.66	3310.71	-89.6768	0.0000000E+000	0.0000000E+000	0.0000000E+000	89.6768	0.0000000E+000	0.0000000E+000	0.0000000E+000	-89.6768	0.0000000E+000	0.0000000E+000	0.0000000E+000	-0.323157	0.0000000E+000	0.0000000E+000	0.0000000E+000	0.323157	177.298	89.6768	2.12475e-06	6.13979e-06	32947.2
2250.72	9.87474	0.0685395	9.87498	-0.397678	207.964	0.44976	0.0116982	1031.71	0.0497013	1	10	0.0102474	0.00103771	0	4.50332e-05	0.101264	0.00070286	0.101266	0.397678	49.7009	7160.64	7160.81	-89.6023	0.0000000E+000	0.0000000E+000	0.0000000E+000	89.6023	0.0000000E+000	0.0000000E+000	0.0000000E+000	-89.6023	0.0000000E+000	0.0000000E+000	0.0000000E+000	-0.397678	0.0000000E+000	0.0000000E+000	0.0000000E+000	0.397678	144.074	89.6023	1.25612e-06	5.26138e-06	38447
1040.33	9.89981	0.114618	9.90047	-0.663329	208.894	0.449764	0.012643	1334.74	0.178891	1	10	0.0103561	0.00104602	0	4.75651e-05	0.100999	0.00116934	0.101005	0.663329	178.891	15451.2	15452.3	-89.3367	0.0000000E+000	0.0000000E+000	0.0000000E+000	89.3367	0.0000000E+000	0.0000000E+000	0.0000000E+000	-89.3367	0.0000000E+000	0.0000000E+000	0.0000000E+000	-0.663329	0.0000000E+000	0.0000000E+000	0.0000000E+000	0.663329	86.3722	89.3367	1.59597e-06	5.68635e-06	35574.2
480.769	9.90459	0.201616	9.90664	-1.16614	209.824	0.449754	0.0120802	1641.94	0.680074	1	10	0.010377	0.00104747	0	5.01558e-05	0.100921	0.00205434	0.100942	1.16614	680.075	33409.3	33416.2	-88.8339	0.0000000E+000	0.0000000E+000	0.0000000E+000	88.8339	0.0000000E+000	0.0000000E+000	0.0000000E+000	-88.8339	0.0000000E+000	0.0000000E+000	0.0000000E+000	-1.16614	0.0000000E+000	0.0000000E+000	0.0000000E+000	1.16614	49.1259	88.8339	1.34352e-06	5.43311e-06	37230.6
222.061	9.91812	0.414578	9.92678	-2.39357	210.748	0.449762	0.0106901	1728.79	3.01535	1	10	0.0103824	0.0010459	0	5.3558e-05	0.10065	0.00420716	0.100738	2.39357	3015.35	72137.5	72200.5	-87.6064	0.0000000E+000	0.0000000E+000	0.0000000E+000	87.6064	0.0000000E+000	0.0000000E+000	0.0000000E+000	-87.6064	0.0000000E+000	0.0000000E+000	0.0000000E+000	-2.39357	0.0000000E+000	0.0000000E+000	0.0000000E+000	2.39357	23.9234	87.6064	2.52409e-06	4.80799e-06	42072.9
102.667	9.96171	0.852098	9.99809	-4.88903	211.685	0.449764	0.0122311	1819.28	13.2143	1	10	0.01039	0.0010392	0	5.55031e-05	0.0996552	0.00852424	0.100019	4.88903	13214.3	154486	155050	-85.111	0.0000000E+000	0.0000000E+000	0.0000000E+000	85.111	0.0000000E+000	0.0000000E+000	0.0000000E+000	-85.111	0.0000000E+000	0.0000000E+000	0.0000000E+000	-4.88903	0.0000000E+000	0.0000000E+000	0.0000000E+000	4.88903	11.6908	85.111	9.84254e-07	5.50113e-06	36772
47.4443	10.0374	1.77995	10.194	-10.0558	212.597	0.449756	0.00958878	1884.64	57.4582	1	10	0.0103982	0.00102003	0	5.77333e-05	0.0965898	0.0171284	0.0980967	10.0558	57458.2	324016	329072	-79.9442	0.0000000E+000	0.0000000E+000	0.0000000E+000	79.9442	0.0000000E+000	0.0000000E+000	0.0000000E+000	-79.9442	0.0000000E+000	0.0000000E+000	0.0000000E+000	-10.0558	0.0000000E+000	0.0000000E+000	0.0000000E+000	10.0558	5.63917	79.9442	7.09997e-07	4.31261e-06	46904.4
21.9144	10.1564	3.70275	10.8103	-20.0305	213.465	0.449742	0.0108373	1961.4	230.112	1	10	0.0104029	0.000962316	0	5.82639e-05	0.0869089	0.0316847	0.0925044	20.0305	230112	631181	671819	-69.9695	0.0000000E+000	0.0000000E+000	0.0000000E+000	69.9695	0.0000000E+000	0.0000000E+000	0.0000000E+000	-69.9695	0.0000000E+000	0.0000000E+000	0.0000000E+000	-20.0305	0.0000000E+000	0.0000000E+000	0.0000000E+000	20.0305	2.74293	69.9695	-1.64178e-07	4.87398e-06	41499.5
10.1329	10.3939	7.70963	12.9411	-36.566	214.642	0.449759	4.63752e-05	2037.28	723.062	1	11	0.0104221	0.000805352	0	6.15786e-05	0.0620636	0.0460353	0.0772732	36.566	723062	974814	1.21371e+06	-53.434	0.0000000E+000	0.0000000E+000	0.0000000E+000	53.434	0.0000000E+000	0.0000000E+000	0.0000000E+000	-53.434	0.0000000E+000	0.0000000E+000	0.0000000E+000	-36.566	0.0000000E+000	0.0000000E+000	0.0000000E+000	36.566	1.34817	53.434	1.40591e-06	2.08577e-08	9.69827e+06
4.68375	10.8372	16.14	19.4408	-56.1206	215.492	0.449763	0.00107586	2105.34	1451.11	1	11	0.0104161	0.000535783	0	5.94504e-05	0.028674	0.0427046	0.0514381	56.1206	1.45111e+06	974348	1.74788e+06	-33.8794	0.0000000E+000	0.0000000E+000	0.0000000E+000	33.8794	0.0000000E+000	0.0000000E+000	0.0000000E+000	-33.8794	0.0000000E+000	0.0000000E+000	0.0000000E+000	-56.1206	0.0000000E+000	0.0000000E+000	0.0000000E+000	56.1206	0.671449	33.8794	-7.3763e-06	4.83883e-07	418048
2.16533	11.7274	34.1229	36.0819	-71.0332	217.208	0.449773	0.00112068	2154.03	1926.48	1	11	0.0104244	0.000288911	0	6.95994e-05	0.00900788	0.02621	0.0277148	71.0332	1.92648e+06	662093	2.03708e+06	-18.9669	0.0000000E+000	0.0000000E+000	0.0000000E+000	18.9669	0.0000000E+000	0.0000000E+000	0.0000000E+000	-18.9669	0.0000000E+000	0.0000000E+000	0.0000000E+000	-71.0332	0.0000000E+000	0.0000000E+000	0.0000000E+000	71.0332	0.343681	18.9669	5.47721e-06	5.04049e-07	401341
1.00006	13.3891	72.3589	73.5873	-79.5167	221.548	0.449773	0.000262184	2199.38	2126.57	1	12	0.0104306	0.000141745	0	6.21403e-05	0.00247255	0.0133625	0.0135893	79.5167	2.12657e+06	393493	2.16267e+06	-10.4833	0.0000000E+000	0.0000000E+000	0.0000000E+000	10.4833	0.0000000E+000	0.0000000E+000	0.0000000E+000	-10.4833	0.0000000E+000	0.0000000E+000	0.0000000E+000	-79.5167	0.0000000E+000	0.0000000E+000	0.0000000E+000	79.5167	0.185037	10.4832	-5.00343e-06	1.17923e-07	1.71548e+06

File: 20251112_2-148_001_alpha_reproducibility_1_Na2_03_CVA_C01.mpt
EC-Lab ASCII FILE
Nb header lines : 66

Cyclic Voltammetry Advanced

Run on channel : 1 (SN 69187)
User :
CE vs. WE compliance from -10 V to 10 V
Electrode connection : standard
Potential control : Ewe
Ewe ctrl range : min = -1.00 V, max = 1.00 V
Safety Limits :
	Do not start on E overload
Acquisition started on : 11/12/2025 15:13:50.824
Loaded Setting File :  C:\Users\User\Documents\EC-Lab\Data\Yatsuzuka\20251030_2-147_gamma_reproducibility\20251030_2-147_001_gamma1_K_1.mps
Saved on :
	File : 20251112_2-148_001_alpha_reproducibility_1_Na2_03_CVA_C01.mpr
	Directory : C:\Users\User\Documents\EC-Lab\Data\Yatsuzuka\20251112_2-148_alpha_reproducibility\
	Host : 192.109.209.127
Device : SP-150e (SN .003883)
Address : 192.109.209.128
EC-LAB for windows v11.52 (software)
Internet server v11.52 (firmware)
Command interpretor v11.50 (firmware)
Electrode material :
Initial state :
Electrolyte :
Comments :
Electrode surface area : 0.001 cm2
Characteristic mass : 0.001 g
Equivalent Weight : 0.000 g/eq.
Density : 0.000 g/cm3
Volume (V) : 0.001 cm3
Cycle Definition : Charge/Discharge alternance
Ei (V)              0.450
vs.                 Ref
ti (h:m:s)          0:00:10.0000
dti (s)             0.0000
dE/dt               5.000
dE/dt unit          mV/s
E1 (V)              0.700
vs.                 Ref
t1 (h:m:s)          0:00:0.0000
dt1 (s)             0.1000
Step percent        50
N                   10
E range min (V)     -1.000
E range max (V)     1.000
I Range             10 mA
I Range min         Unset
I Range max         Unset
I Range init        Unset
Bandwidth           5
E2 (V)              0.450
vs.                 Ref
t2 (h:m:s)          0:00:0.0000
dt2 (s)             0.1000
nc cycles           14
nr                  1
Reverse Scan        0
Ef (V)              0.000
vs.                 Eoc
tf (h:m:s)          0:00:0.0000
dtf (s)             0.1000

mode	ox/red	error	control changes	Ns changes	counter inc.	time/s	control/V	Ewe/V	<I>/mA	cycle number	(Q-Qo)/C	I Range	Ns	step time/s	Pwe/W	Rwe/Ohm
2	0	0	0	0	0	231.667	0.449961	0.449831	-0.00597787	1	0.0000000E+000	11	0	0.000000000000000E+000	-2.68903e-06	75249.3
2	1	0	1	0	0	245.703	0.520139	0.51993	0.0121497	1	0.000182443	11	0	13.9806	6.31701e-06	42793.5
2	1	0	1	0	0	259.783	0.590541	0.59033	0.016846	1	0.000378044	11	0	28.061	9.94468e-06	35042.8
2	1	0	1	0	0	273.864	0.660943	0.660726	0.103397	1	0.00094225	11	0	42.1415	6.83169e-05	6390.19
2	1	0	0	0	0	287.727	0.669731	0.669506	0.121046	1	0.00432114	11	0	56.0045	8.1041e-05	5531.01
2	1	0	1	0	0	301.807	0.599329	0.599093	-0.00174666	1	0.00475797	11	0	1.2982	-1.04641e-06	342993
2	0	0	1	0	0	315.888	0.528926	0.528708	-0.0117872	1	0.0046452	11	0	15.3787	-6.23201e-06	44854.3
2	0	0	1	0	0	329.968	0.458523	0.458289	-0.011549	1	0.00448926	11	0	29.4592	-5.2928e-06	39682
2	1	0	1	0	1	343.906	0.511201	0.510917	0.0132169	2	0.00461518	11	0	12.1831	6.75274e-06	38656.3
2	1	0	0	0	1	357.987	0.581603	0.581377	0.013404	2	0.00479305	11	0	26.2636	7.79279e-06	43373.4
2	1	0	1	0	1	372.067	0.652006	0.651755	0.0682315	2	0.00520737	11	0	40.3441	4.44702e-05	9552.12
2	1	0	1	0	1	385.92	0.678719	0.678507	0.177074	2	0.00842147	11	0	54.1971	0.000120146	3831.77
2	1	0	0	0	1	400.001	0.608316	0.608102	-0.000730785	2	0.00911114	11	0	0.0999	-4.44392e-07	832121
2	0	0	1	0	1	414.081	0.537913	0.537657	-0.0111947	2	0.00901115	11	0	13.9806	-6.01889e-06	48027.9
2	0	0	1	0	1	428.161	0.467512	0.467323	-0.0118712	2	0.00885783	11	0	28.061	-5.54769e-06	39366.1
2	1	0	1	0	0	442.099	0.502213	0.501948	0.0116073	3	0.00893944	11	0	10.3856	5.82624e-06	43244.3
2	1	0	1	0	0	456.18	0.572616	0.572407	0.0133999	3	0.00911253	11	0	24.4661	7.67019e-06	42717.3
2	1	0	0	0	0	470.26	0.643018	0.642847	0.0481031	3	0.00944061	11	0	38.5466	3.09229e-05	13363.9
2	1	0	1	0	0	484.113	0.687706	0.687482	0.260782	3	0.0123459	11	0	52.3996	0.000179283	2636.23
2	1	0	1	0	0	498.194	0.617303	0.617084	0.00485449	3	0.0134152	11	0	66.4801	2.99563e-06	127116
2	0	0	1	0	0	512.274	0.546902	0.546657	-0.011047	3	0.0133339	11	0	11.8835	-6.03891e-06	49484.8
2	0	0	0	0	0	526.355	0.476499	0.476247	-0.0110296	3	0.0131841	11	0	25.964	-5.2528e-06	43179.2
2	1	0	1	0	1	540.293	0.493226	0.492984	0.0133132	4	0.0132229	11	0	8.5881	6.56321e-06	37029.6
2	1	0	1	0	1	554.373	0.563628	0.563421	0.0134779	4	0.0133938	11	0	22.6686	7.59375e-06	41803.2
2	1	0	1	0	1	568.454	0.634031	0.63386	0.0370795	4	0.0136655	11	0	36.7491	2.35033e-05	17094.6
2	1	0	1	0	1	582.307	0.696693	0.696457	0.376339	4	0.016062	11	0	50.6021	0.000262104	1850.61
2	1	0	1	0	1	596.387	0.626291	0.62613	0.00766046	4	0.0176759	11	0	64.6826	4.79644e-06	81735.4
2	0	0	1	0	1	610.468	0.555888	0.555681	-0.0103267	4	0.0176217	11	0	10.0861	-5.73834e-06	53810.2
2	0	0	1	0	1	624.548	0.485487	0.485242	-0.0113436	4	0.017476	11	0	24.1665	-5.50441e-06	42776.6
2	1	0	0	0	0	638.486	0.484238	0.48397	0.0136695	5	0.0174729	11	0	6.7906	6.61563e-06	35405.1
2	1	0	1	0	0	652.566	0.554641	0.554457	0.0130337	5	0.017643	11	0	20.8711	7.22665e-06	42540.2
2	1	0	1	0	0	666.647	0.625043	0.624834	0.0268404	5	0.0178786	11	0	34.9516	1.67708e-05	23279.6
2	1	0	1	0	0	680.727	0.695445	0.695241	0.374704	5	0.0196863	11	0	49.032	0.00026051	1855.44
2	1	0	1	0	0	694.58	0.635278	0.635081	0.0184891	5	0.0219089	11	0	62.8851	1.17421e-05	34348.9
2	1	0	1	0	0	708.661	0.564877	0.564693	-0.00638559	5	0.0219061	11	0	7.7892	-3.6059e-06	88432.4
2	0	0	1	0	0	722.741	0.494474	0.494256	-0.01172	5	0.0217775	11	0	21.8697	-5.79269e-06	42171.9
2	1	0	1	0	1	736.679	0.475251	0.475023	0.0130235	6	0.0217436	11	0	4.9931	6.18648e-06	36474.2
2	1	0	0	0	1	750.76	0.545653	0.545412	0.0158277	6	0.02194	11	0	19.0736	8.63258e-06	34459.4
2	1	0	1	0	1	764.84	0.616056	0.615833	0.0243472	6	0.0221873	11	0	33.1541	1.49938e-05	25293.8
2	1	0	1	0	1	778.921	0.686457	0.68628	0.269603	6	0.0235018	11	0	47.2345	0.000185023	2545.52
2	1	0	1	0	1	792.774	0.644267	0.644042	0.0362266	6	0.0262875	11	0	61.0875	2.33315e-05	17778.2
2	1	0	0	0	1	806.854	0.573864	0.573639	-0.00274823	6	0.0264155	11	0	0.7989	-1.57649e-06	208731
2	1	0	1	0	1	820.935	0.503462	0.503234	-0.004782	6	0.0263497	11	0	14.8794	-2.40647e-06	105235
2	1	0	1	0	0	834.873	0.466263	0.466038	0.0132883	7	0.0263096	11	0	3.1956	6.19287e-06	35071.2
2	1	0	1	0	0	848.953	0.536666	0.53642	0.0135818	7	0.0265079	11	0	17.2761	7.28554e-06	39495.6
2	1	0	1	0	0	863.033	0.607068	0.606857	0.0216269	7	0.0267266	11	0	31.3565	1.31244e-05	28060.3
2	1	0	0	0	0	877.114	0.67747	0.67723	0.186625	7	0.0276505	11	0	45.437	0.000126388	3628.83
2	1	0	1	0	0	890.967	0.653253	0.653008	0.0501866	7	0.0307187	11	0	59.2901	3.27723e-05	13011.6
2	1	0	1	0	0	905.047	0.582852	0.58265	-0.00484666	7	0.0308581	11	0	4.4938	-2.8239e-06	120217
2	1	0	0	0	0	919.128	0.512449	0.512239	-0.00784858	7	0.0307427	11	0	18.5743	-4.02034e-06	65265.1
2	1	0	1	0	1	933.066	0.457276	0.457056	0.0117049	8	0.0306282	11	0	1.3981	5.34979e-06	39048.3
2	0	0	1	0	1	947.146	0.527678	0.527457	0.0111215	8	0.0308087	11	0	15.4785	5.8661e-06	47426.8
2	1	0	1	0	1	961.227	0.598081	0.597836	0.026524	8	0.0311022	11	0	29.5591	1.5857e-05	22539.5
2	1	0	1	0	1	975.307	0.668483	0.668192	0.13208	8	0.0318763	11	0	43.6395	8.82545e-05	5059.01
2	1	0	1	0	1	989.16	0.662242	0.662007	0.0812438	8	0.0351412	11	0	57.4925	5.3784e-05	8148.4
2	1	0	1	0	1	1003.24	0.591839	0.591633	-5.68794e-05	8	0.0354393	11	0	0.699	-3.36517e-08	1.04015e+07
[...]
2	1	0	0	0	1	1199.63	0.609814	0.60961	0.00926324	10	0.0446487	11	0	67.978	5.64696e-06	65809.6
2	1	0	1	0	1	1213.71	0.539411	0.539247	0.00267727	10	0.0447087	11	0	82.0585	1.44371e-06	201417
2	0	0	1	0	1	1227.79	0.46901	0.468832	-0.0024917	10	0.0447068	11	0	0.000000000000000E+000	-1.16819e-06	188157
2	1	0	1	0	0	1241.73	0.500715	0.500432	0.0260895	11	0.0449209	11	0	10.1406	1.3056e-05	19181.3
2	1	0	1	0	0	1255.81	0.571118	0.570871	0.0232141	11	0.0452719	11	0	24.2211	1.32523e-05	24591.6
2	1	0	0	0	0	1269.89	0.64152	0.64129	0.0565827	11	0.0457412	11	0	38.3016	3.6286e-05	11333.7
2	1	0	1	0	0	1283.74	0.689204	0.688997	0.280404	11	0.0486357	11	0	52.1546	0.000193198	2457.16
2	1	0	1	0	0	1297.82	0.618802	0.618555	0.0130623	11	0.0498816	11	0	66.2351	8.07976e-06	47354.1
2	1	0	0	0	0	1311.9	0.548399	0.548147	0.005516	11	0.0499756	11	0	80.3156	3.02358e-06	99374
2	1	0	1	0	0	1325.98	0.477996	0.477782	0.00301686	11	0.0500351	11	0	94.3961	1.4414e-06	158371
2	1	0	1	0	1	1339.92	0.491728	0.491553	0.0307249	12	0.050288	11	0	8.2885	1.51029e-05	15998.5
2	1	0	1	0	1	1354	0.56213	0.561918	0.0450216	12	0.0507412	11	0	22.369	2.52985e-05	12481.1
2	1	0	1	0	1	1368.08	0.632533	0.632319	0.0542703	12	0.0513255	11	0	36.4495	3.43162e-05	11651.3
2	1	0	1	0	1	1381.93	0.698192	0.697976	0.409171	12	0.0537878	11	0	50.3025	0.000285592	1705.83
2	1	0	1	0	1	1396.01	0.627789	0.627599	0.0293519	12	0.0557054	11	0	64.383	1.84212e-05	21381.9
2	1	0	1	0	1	1410.09	0.557387	0.557184	0.0210305	12	0.0559204	11	0	78.4635	1.17179e-05	26494
2	1	0	1	0	1	1424.17	0.486985	0.486821	0.0115865	12	0.0561485	11	0	92.5439	5.64053e-06	42016.3
2	1	0	0	0	0	1438.11	0.48274	0.482518	0.0318978	13	0.0564125	11	0	106.482	1.53913e-05	15127
2	1	0	1	0	0	1452.19	0.553143	0.552887	0.0302234	13	0.056833	11	0	120.562	1.67101e-05	18293.4
2	1	0	1	0	0	1466.27	0.623545	0.623338	0.0431625	13	0.0573127	11	0	134.643	2.69049e-05	14441.7
2	1	0	1	0	0	1480.35	0.693948	0.693714	0.364782	13	0.0592004	11	0	148.723	0.000253054	1901.73
2	1	0	1	0	0	1494.21	0.636777	0.636569	0.0344225	13	0.0616815	11	0	162.576	2.19123e-05	18492.8
2	1	0	1	0	0	1508.29	0.566375	0.566163	0.00991468	13	0.061934	11	0	176.657	5.61332e-06	57103.5
2	1	0	1	0	0	1522.37	0.495972	0.495697	0.00716094	13	0.0620455	11	0	190.737	3.54966e-06	69222.3
2	1	0	1	0	1	1536.31	0.473753	0.47357	0.0338821	14	0.0622586	11	0	204.675	1.60455e-05	13977
2	1	0	0	0	1	1550.39	0.544155	0.543859	0.0311343	14	0.0627159	11	0	218.756	1.69327e-05	17468.2
2	1	0	1	0	1	1564.47	0.614558	0.614361	0.0403368	14	0.0632069	11	0	232.836	2.47814e-05	15230.8
2	1	0	1	0	1	1578.55	0.68496	0.684815	0.278738	14	0.0647654	11	0	246.916	0.000190884	2456.84
2	1	0	0	0	1	1592.4	0.645764	0.645584	0.0572972	14	0.0678684	11	0	260.77	3.69902e-05	11267.3
2	1	0	1	0	1	1606.48	0.575361	0.575134	0.0132088	14	0.0682224	11	0	274.85	7.59685e-06	43541.6
2	1	0	1	0	1	1620.56	0.50496	0.504696	0.0118639	14	0.0683869	11	0	288.93	5.98766e-06	42540.6
2	1	0	1	0	0	1634.5	0.464765	0.464464	0.0361826	15	0.068572	11	0	302.868	1.68055e-05	12836.6
2	1	0	1	0	0	1648.58	0.535168	0.534962	0.0834893	15	0.0695353	11	0	316.949	4.46636e-05	6407.55
2	1	0	1	0	0	1662.66	0.60557	0.605379	0.0827223	15	0.0706884	11	0	331.029	5.00784e-05	7318.21
2	1	0	1	0	0	1676.74	0.675973	0.675785	0.231345	15	0.0723993	11	0	345.11	0.00015634	2921.11
2	1	0	1	0	0	1690.59	0.654751	0.654521	0.107446	15	0.0762448	11	0	358.963	7.03255e-05	6091.65
2	1	0	1	0	0	1704.67	0.58435	0.584119	0.0471266	15	0.0771482	11	0	373.043	2.75275e-05	12394.7
2	1	0	0	0	0	1718.75	0.513947	0.513697	0.0428563	15	0.0777726	11	0	387.124	2.20152e-05	11986.5
2	1	0	1	0	0	1731.54	0.450011	0.449735	0.0424919	15	0.0782773	11	0	399.908	1.91101e-05	10584