Folder: SI_for_publications/ACS_Catal_2026/Figures_Na_K/main_figures/data/EC/20251112_2-148_alpha_reproducibility (part 30)

File: 20251112_2-148_005_gamma_reproducibility_Na2_02_PEIS_C01.mpt
EC-Lab ASCII FILE
Nb header lines : 63

Potentio Electrochemical Impedance Spectroscopy

Run on channel : 1 (SN 69187)
User :
CE vs. WE compliance from -10 V to 10 V
Electrode connection : standard
Potential control : Ewe
Ewe ctrl range : min = -1.00 V, max = 1.00 V
Safety Limits :
	Do not start on E overload
Acquisition started on : 11/12/2025 20:57:12.203
Loaded Setting File :  C:\Users\User\Documents\EC-Lab\Data\Yatsuzuka\20251030_2-147_gamma_reproducibility\20251030_2-147_001_gamma1_K_1.mps
Saved on :
	File : 20251112_2-148_005_gamma_reproducibility_Na2_02_PEIS_C01.mpr
	Directory : C:\Users\User\Documents\EC-Lab\Data\Yatsuzuka\20251112_2-148_alpha_reproducibility\
	Host : 192.109.209.127
Device : SP-150e (SN .003883)
Address : 192.109.209.128
EC-Lab for windows v11.52 (software)
Internet server v11.52 (firmware)
Command interpretor v11.50 (firmware)
Electrode material :
Initial state :
Electrolyte :
Comments :
Electrode surface area : 0.001 cm2
Characteristic mass : 0.001 g
Equivalent Weight : 0.000 g/eq.
Density : 0.000 g/cm3
Volume (V) : 0.001 cm3
Cycle Definition : Charge/Discharge alternance
Mode                Single sine
E (V)               0.4500
vs.                 Ref
tE (h:m:s)          0:00:0.0000
record              0
dI                  0.000
unit dI             mA
dt (s)              0.000
fi                  500.000
unit fi             kHz
ff                  1.000
unit ff             Hz
Nd                  6
Points              per decade
spacing             Logarithmic
Va (mV)             10.0
pw                  0.10
Na                  2
corr                0
E range min (V)     -1.000
E range max (V)     1.000
I Range             Auto
Bandwidth           5
nc cycles           0
goto Ns'            0
nr cycles           0
inc. cycle          0

freq/Hz	Re(Z)/Ohm	-Im(Z)/Ohm	|Z|/Ohm	Phase(Z)/deg	time/s	<Ewe>/V	<I>/mA	Cs/uF	Cp/uF	cycle number	I Range	|Ewe|/V	|I|/A	Ns	(Q-Qo)/mA.h	Re(Y)/Ohm-1	Im(Y)/Ohm-1	|Y|/Ohm-1	Phase(Y)/deg	Re(C)/nF	Im(C)/nF	|C|/nF	Phase(C)/deg	Re(M)	Im(M)	|M|	Phase(M)/deg	Re(Permittivity)	Im(Permittivity)	|Permittivity|	Phase(Permittivity)/deg	Re(Resistivity)/Ohm.cm	Im(Resistivity)/Ohm.cm	|Resistivity|/Ohm.cm	Phase(Resistivity)/deg	Re(Conductivity)/mS/cm	Im(Conductivity)/mS/cm	|Conductivity|/mS/cm	Phase(Conductivity)/deg	Tan(Delta)	Loss Angle(Delta)/deg	dq/mA.h
500019	22.4023	-1.78261	22.4731	4.54959	202.106	0.450099	0.0101403	-0.178557	-0.00112348	1	10	0.00701354	0.000312086	0	1.24393e-05	0.0443574	-0.00352963	0.0444976	-4.54959	-1.12348	14.1189	14.1635	-94.5496	0.0000000E+000	0.0000000E+000	0.0000000E+000	94.5496	0.0000000E+000	0.0000000E+000	0.0000000E+000	-94.5496	0.0000000E+000	0.0000000E+000	0.0000000E+000	4.54959	0.0000000E+000	0.0000000E+000	0.0000000E+000	-4.54959	12.5671	85.4504	1.24393e-05
231063	14.7943	-0.810076	14.8165	3.13415	202.951	0.449765	0.0111746	-0.850286	-0.00254172	1	10	0.0108492	0.000732242	0	1.32866e-05	0.0673915	-0.00369009	0.0674925	-3.13415	-2.54172	46.419	46.4885	-93.1342	0.0000000E+000	0.0000000E+000	0.0000000E+000	93.1342	0.0000000E+000	0.0000000E+000	0.0000000E+000	-93.1342	0.0000000E+000	0.0000000E+000	0.0000000E+000	3.13415	0.0000000E+000	0.0000000E+000	0.0000000E+000	-3.13415	18.2629	86.8658	-2.0664e-07
106786	13.6848	-0.164418	13.6858	0.688353	203.931	0.449739	0.0110683	-9.06473	-0.00130831	1	10	0.0107594	0.000786168	0	1.69352e-05	0.073063	-0.000877823	0.0730682	-0.688353	-1.30831	108.893	108.901	-90.6884	0.0000000E+000	0.0000000E+000	0.0000000E+000	90.6884	0.0000000E+000	0.0000000E+000	0.0000000E+000	-90.6884	0.0000000E+000	0.0000000E+000	0.0000000E+000	0.688353	0.0000000E+000	0.0000000E+000	0.0000000E+000	-0.688353	83.232	89.3116	2.95371e-06
49352.4	13.5536	0.0403377	13.5537	-0.170521	204.775	0.449739	0.0109025	79.9467	0.000708123	1	10	0.010567	0.000779639	0	1.94816e-05	0.0737803	0.000219582	0.0737807	0.170521	0.708139	237.932	237.933	-89.8295	0.0000000E+000	0.0000000E+000	0.0000000E+000	89.8295	0.0000000E+000	0.0000000E+000	0.0000000E+000	-89.8295	0.0000000E+000	0.0000000E+000	0.0000000E+000	-0.170521	0.0000000E+000	0.0000000E+000	0.0000000E+000	0.170521	336.004	89.8295	1.93774e-06
22806.6	13.5431	0.126757	13.5437	-0.536245	205.619	0.449742	0.0109491	55.054	0.00482234	1	10	0.0104178	0.0007692	0	2.02969e-05	0.0738319	0.000691031	0.0738352	0.536245	4.82236	515.234	515.257	-89.4638	0.0000000E+000	0.0000000E+000	0.0000000E+000	89.4638	0.0000000E+000	0.0000000E+000	0.0000000E+000	-89.4638	0.0000000E+000	0.0000000E+000	0.0000000E+000	-0.536245	0.0000000E+000	0.0000000E+000	0.0000000E+000	0.536245	106.843	89.4638	8.88932e-07
10540.4	13.5951	0.243818	13.5973	-1.02744	206.464	0.449742	0.0113423	61.9296	0.0199124	1	10	0.010253	0.000754045	0	2.29194e-05	0.0735322	0.00131874	0.073544	1.02744	19.9124	1110.3	1110.48	-88.9726	0.0000000E+000	0.0000000E+000	0.0000000E+000	88.9726	0.0000000E+000	0.0000000E+000	0.0000000E+000	-88.9726	0.0000000E+000	0.0000000E+000	0.0000000E+000	-1.02744	0.0000000E+000	0.0000000E+000	0.0000000E+000	1.02744	55.7593	88.9726	1.52265e-06
4871.56	13.6275	0.479232	13.6359	-2.01407	207.455	0.449761	0.0119926	68.172	0.0842033	1	10	0.0105279	0.000772069	0	2.678e-05	0.0732904	0.00257737	0.0733357	2.01407	84.2035	2394.41	2395.89	-87.9859	0.0000000E+000	0.0000000E+000	0.0000000E+000	87.9859	0.0000000E+000	0.0000000E+000	0.0000000E+000	-87.9859	0.0000000E+000	0.0000000E+000	0.0000000E+000	-2.01407	0.0000000E+000	0.0000000E+000	0.0000000E+000	2.01407	28.4361	87.9859	1.79392e-06
2250.72	13.6778	0.947957	13.7106	-3.96462	208.385	0.449752	0.0123038	74.595	0.356595	1	10	0.0108531	0.000791584	0	2.98854e-05	0.0727618	0.00504286	0.0729363	3.96462	356.595	5145.2	5157.54	-86.0354	0.0000000E+000	0.0000000E+000	0.0000000E+000	86.0354	0.0000000E+000	0.0000000E+000	0.0000000E+000	-86.0354	0.0000000E+000	0.0000000E+000	0.0000000E+000	-3.96462	0.0000000E+000	0.0000000E+000	0.0000000E+000	3.96462	14.4287	86.0354	2.07752e-06
1040.33	13.7931	1.92392	13.9266	-7.94065	209.315	0.449758	0.0123429	79.517	1.51755	1	10	0.0109368	0.000785316	0	3.31689e-05	0.0711164	0.00991965	0.0718049	7.94065	1517.55	10879.7	10985.1	-82.0593	0.0000000E+000	0.0000000E+000	0.0000000E+000	82.0593	0.0000000E+000	0.0000000E+000	0.0000000E+000	-82.0593	0.0000000E+000	0.0000000E+000	0.0000000E+000	-7.94065	0.0000000E+000	0.0000000E+000	0.0000000E+000	7.94065	7.16925	82.0593	1.07335e-06
480.769	13.9696	3.93706	14.5138	-15.7394	210.245	0.449761	0.0115286	84.0836	6.18718	1	10	0.0109416	0.000753877	0	3.69272e-05	0.0663165	0.01869	0.0688999	15.7394	6187.18	21953.6	22808.8	-74.2606	0.0000000E+000	0.0000000E+000	0.0000000E+000	74.2606	0.0000000E+000	0.0000000E+000	0.0000000E+000	-74.2606	0.0000000E+000	0.0000000E+000	0.0000000E+000	-15.7394	0.0000000E+000	0.0000000E+000	0.0000000E+000	15.7394	3.54823	74.2606	1.76902e-06
222.061	14.3338	8.11516	16.4716	-29.5166	211.169	0.449752	0.0119199	88.3185	21.4375	1	10	0.0109486	0.000664694	0	3.96242e-05	0.0528311	0.0299106	0.0607105	29.5166	21437.5	37865	43512.3	-60.4834	0.0000000E+000	0.0000000E+000	0.0000000E+000	60.4834	0.0000000E+000	0.0000000E+000	0.0000000E+000	-60.4834	0.0000000E+000	0.0000000E+000	0.0000000E+000	-29.5166	0.0000000E+000	0.0000000E+000	0.0000000E+000	29.5166	1.7663	60.4834	8.30105e-07
102.667	14.9715	16.8645	22.5512	-48.4029	212.364	0.449747	0.000663614	91.921	51.407	1	11	0.0109833	0.000487038	0	4.24085e-05	0.0294392	0.0331616	0.0443436	48.4029	51407	45636.6	68741.4	-41.5971	0.0000000E+000	0.0000000E+000	0.0000000E+000	41.5971	0.0000000E+000	0.0000000E+000	0.0000000E+000	-41.5971	0.0000000E+000	0.0000000E+000	0.0000000E+000	-48.4029	0.0000000E+000	0.0000000E+000	0.0000000E+000	48.4029	0.88775	41.5971	1.11851e-06
47.4443	16.1849	35.2667	38.8032	-65.3482	213.276	0.449743	0.000491777	95.1199	78.5714	1	11	0.0109491	0.00028217	0	4.25402e-05	0.0107492	0.0234223	0.0257711	65.3482	78571.4	36058.8	86450.6	-24.6518	0.0000000E+000	0.0000000E+000	0.0000000E+000	24.6518	0.0000000E+000	0.0000000E+000	0.0000000E+000	-24.6518	0.0000000E+000	0.0000000E+000	0.0000000E+000	-65.3482	0.0000000E+000	0.0000000E+000	0.0000000E+000	65.3482	0.45893	24.6518	1.16553e-08
21.9144	18.6736	73.8415	76.166	-75.8081	214.144	0.449744	0.000205886	98.3534	92.4416	1	11	0.010925	0.000143436	0	4.2297e-05	0.00321888	0.0127285	0.0131292	75.8081	92441.6	23377.3	95351.7	-14.1919	0.0000000E+000	0.0000000E+000	0.0000000E+000	14.1919	0.0000000E+000	0.0000000E+000	0.0000000E+000	-14.1919	0.0000000E+000	0.0000000E+000	0.0000000E+000	-75.8081	0.0000000E+000	0.0000000E+000	0.0000000E+000	75.8081	0.252888	14.1919	-2.0353e-07
10.1329	22.9557	154.397	156.094	-81.5433	215.321	0.44977	0.000104214	101.729	99.5289	1	12	0.0109283	7.00109e-05	0	4.24645e-05	0.000942139	0.00633672	0.00640638	81.5433	99528.9	14797.9	100623	-8.45674	0.0000000E+000	0.0000000E+000	0.0000000E+000	8.45674	0.0000000E+000	0.0000000E+000	0.0000000E+000	-8.45674	0.0000000E+000	0.0000000E+000	0.0000000E+000	-81.5433	0.0000000E+000	0.0000000E+000	0.0000000E+000	81.5433	0.148679	8.45674	-5.69697e-08
4.68375	33.3069	326.674	328.367	-84.1784	216.172	0.449758	0.00029	104.019	102.949	1	12	0.0109197	3.32546e-05	0	4.249e-05	0.000308897	0.00302966	0.00304537	84.1784	102949	10496.4	103482	-5.82162	0.0000000E+000	0.0000000E+000	0.0000000E+000	5.82162	0.0000000E+000	0.0000000E+000	0.0000000E+000	-5.82162	0.0000000E+000	0.0000000E+000	0.0000000E+000	-84.1784	0.0000000E+000	0.0000000E+000	0.0000000E+000	84.1784	0.101958	5.82162	-4.74518e-07
2.16533	51.3941	683.947	685.875	-85.7027	218.397	0.449767	3.61367e-05	107.467	106.863	1	13	0.0109212	1.5923e-05	0	4.29096e-05	0.00010925	0.00145389	0.00145799	85.7027	106863	8030.06	107165	-4.29732	0.0000000E+000	0.0000000E+000	0.0000000E+000	4.29732	0.0000000E+000	0.0000000E+000	0.0000000E+000	-4.29732	0.0000000E+000	0.0000000E+000	0.0000000E+000	-85.7027	0.0000000E+000	0.0000000E+000	0.0000000E+000	85.7027	0.0751433	4.29732	3.98571e-07
1.00006	90.0015	1440.88	1443.69	-86.4258	222.006	0.449761	5.81168e-05	110.45	110.02	1	13	0.0109225	7.56572e-06	0	4.26794e-05	4.31821e-05	0.000691323	0.00069267	86.4258	110020	6872.2	110235	-3.57422	0.0000000E+000	0.0000000E+000	0.0000000E+000	3.57422	0.0000000E+000	0.0000000E+000	0.0000000E+000	-3.57422	0.0000000E+000	0.0000000E+000	0.0000000E+000	-86.4258	0.0000000E+000	0.0000000E+000	0.0000000E+000	86.4258	0.0624629	3.57422	-2.09166e-07

File: 20251112_2-148_005_gamma_reproducibility_Na2_03_CVA_C01.mpt
EC-Lab ASCII FILE
Nb header lines : 66

Cyclic Voltammetry Advanced

Run on channel : 1 (SN 69187)
User :
CE vs. WE compliance from -10 V to 10 V
Electrode connection : standard
Potential control : Ewe
Ewe ctrl range : min = -1.00 V, max = 1.00 V
Safety Limits :
	Do not start on E overload
Acquisition started on : 11/12/2025 20:57:12.203
Loaded Setting File :  C:\Users\User\Documents\EC-Lab\Data\Yatsuzuka\20251030_2-147_gamma_reproducibility\20251030_2-147_001_gamma1_K_1.mps
Saved on :
	File : 20251112_2-148_005_gamma_reproducibility_Na2_03_CVA_C01.mpr
	Directory : C:\Users\User\Documents\EC-Lab\Data\Yatsuzuka\20251112_2-148_alpha_reproducibility\
	Host : 192.109.209.127
Device : SP-150e (SN .003883)
Address : 192.109.209.128
EC-Lab for windows v11.52 (software)
Internet server v11.52 (firmware)
Command interpretor v11.50 (firmware)
Electrode material :
Initial state :
Electrolyte :
Comments :
Electrode surface area : 0.001 cm2
Characteristic mass : 0.001 g
Equivalent Weight : 0.000 g/eq.
Density : 0.000 g/cm3
Volume (V) : 0.001 cm3
Cycle Definition : Charge/Discharge alternance
Ei (V)              0.450
vs.                 Ref
ti (h:m:s)          0:00:10.0000
dti (s)             0.0000
dE/dt               5.000
dE/dt unit          mV/s
E1 (V)              0.700
vs.                 Ref
t1 (h:m:s)          0:00:0.0000
dt1 (s)             0.1000
Step percent        50
N                   10
E range min (V)     -1.000
E range max (V)     1.000
I Range             10 mA
I Range min         Unset
I Range max         Unset
I Range init        Unset
Bandwidth           5
E2 (V)              0.450
vs.                 Ref
t2 (h:m:s)          0:00:0.0000
dt2 (s)             0.1000
nc cycles           14
nr                  1
Reverse Scan        0
Ef (V)              0.000
vs.                 Eoc
tf (h:m:s)          0:00:0.0000
dtf (s)             0.1000

mode	ox/red	error	control changes	Ns changes	counter inc.	time/s	control/V	Ewe/V	<I>/mA	cycle number	(Q-Qo)/C	I Range	Ns	step time/s	P/W
2	0	0	0	0	0	232.127	0.449961	0.449678	-0.00152492	1	0.0000000E+000	11	0	0.000000000000000E+000	-6.85724e-07
2	1	0	1	0	0	245.264	0.515645	0.515379	0.00158517	1	2.18837e-05	11	0	13.0818	8.16966e-07
2	0	0	1	0	0	258.446	0.581553	0.581285	0.00163961	1	4.40086e-05	11	0	26.2635	9.5308e-07
2	1	0	1	0	0	271.627	0.647462	0.647211	0.00715179	1	8.3146e-05	11	0	39.4452	4.62872e-06
2	1	0	1	0	0	284.592	0.687706	0.68751	0.0628114	1	0.000663554	11	0	52.4095	4.31835e-05
2	1	0	1	0	0	297.773	0.621798	0.621552	0.00158317	1	0.000913431	11	0	65.5912	9.84022e-07
2	1	0	1	0	0	310.955	0.555888	0.555613	0.000268351	1	0.000920508	11	0	78.773	1.49099e-07
2	1	0	1	0	0	324.137	0.48998	0.489792	0.000138453	1	0.000922002	11	0	0.000000000000000E+000	6.78133e-08
2	1	0	1	0	1	337.176	0.475251	0.475006	0.00136056	2	0.000929356	11	0	4.9931	6.46276e-07
2	1	0	0	0	1	350.358	0.541159	0.540962	0.00125368	2	0.000947754	11	0	18.1748	6.78192e-07
2	1	0	1	0	1	363.539	0.607068	0.606862	0.00178616	2	0.000967583	11	0	31.3565	1.08395e-06
2	1	0	1	0	1	376.721	0.672977	0.672733	0.0256709	2	0.00106453	11	0	44.5383	1.72696e-05
2	1	0	1	0	1	389.675	0.662242	0.661983	0.0171585	2	0.00170425	11	0	57.4925	1.13586e-05
2	1	0	1	0	1	402.857	0.596332	0.59611	0.000531086	2	0.00175731	11	0	70.6743	3.16586e-07
2	0	0	0	0	1	416.039	0.530424	0.530238	0.000121077	2	0.00175985	11	0	0.000000000000000E+000	6.41998e-08
2	0	0	1	0	1	429.221	0.464516	0.464299	0.00016901	2	0.00176029	11	0	0.0998	7.84713e-08
2	1	0	1	0	0	442.26	0.500715	0.500426	0.00115597	3	0.00177368	11	0	10.086	5.78478e-07
2	1	0	0	0	0	455.442	0.566624	0.566417	0.00124801	3	0.00179155	11	0	23.2678	7.06894e-07
2	1	0	1	0	0	468.623	0.632533	0.632331	0.00308843	3	0.00181569	11	0	36.4495	1.95291e-06
2	1	0	1	0	0	481.805	0.698441	0.698208	0.0810685	3	0.00214519	11	0	49.6312	5.66027e-05
2	1	0	1	0	0	494.759	0.636777	0.636567	0.00311031	3	0.0025529	11	0	62.5855	1.97992e-06
2	1	0	1	0	0	507.941	0.570868	0.570653	0.000268699	3	0.00256356	11	0	75.7672	1.53334e-07
2	1	0	1	0	0	521.123	0.50496	0.504715	0.00013667	3	0.00256501	11	0	0.000000000000000E+000	6.89797e-08
2	1	0	1	0	1	534.162	0.460272	0.460063	0.00123082	4	0.00256743	11	0	1.9973	5.66254e-07
2	1	0	1	0	1	547.344	0.52618	0.525949	0.00126008	4	0.00258525	11	0	15.179	6.62739e-07
2	1	0	1	0	1	560.525	0.592089	0.591875	0.00142423	4	0.00260338	11	0	28.3607	8.42965e-07
2	1	0	0	0	1	573.707	0.657997	0.657777	0.0103014	4	0.00264881	11	0	41.5424	6.776e-06
2	1	0	1	0	1	586.661	0.677221	0.677043	0.0347955	4	0.00322678	11	0	54.4967	2.35581e-05
2	1	0	0	0	1	599.843	0.611312	0.611076	0.000752942	4	0.00334638	11	0	67.6784	4.60105e-07
2	0	0	1	0	1	613.025	0.545404	0.5452	0.000170136	4	0.00334993	11	0	80.8601	9.27583e-08
2	0	0	1	0	1	626.206	0.479494	0.479252	8.10446e-05	4	0.00335049	11	0	0.0999	3.88408e-08
2	1	0	0	0	0	639.246	0.485736	0.485545	0.00128541	5	0.00335971	11	0	7.1723	6.24125e-07
2	1	0	1	0	0	652.427	0.551645	0.551421	0.00128048	5	0.00337732	11	0	20.354	7.06081e-07
2	0	0	1	0	0	665.609	0.617554	0.617329	0.00186139	5	0.00339704	11	0	33.5358	1.14909e-06
2	1	0	1	0	0	678.791	0.683461	0.683255	0.0404962	5	0.00354803	11	0	46.7174	2.76692e-05
2	1	0	1	0	0	691.745	0.651756	0.651511	0.00810854	5	0.00410273	11	0	59.6717	5.28281e-06
2	1	0	1	0	0	704.927	0.585848	0.585616	0.000360754	5	0.0041269	11	0	72.8534	2.11263e-07
2	0	0	1	0	0	718.108	0.519939	0.51967	0.000168665	5	0.00412892	11	0	0.3995	8.76503e-08
2	0	0	1	0	0	731.29	0.45403	0.453755	3.94987e-05	5	0.00412936	11	0	0.1997	1.79228e-08
2	1	0	1	0	1	744.329	0.511201	0.51096	0.00125941	6	0.00414598	11	0	12.1831	6.43507e-07
2	1	0	1	0	1	757.511	0.57711	0.576882	0.00137837	6	0.00416406	11	0	25.3649	7.95158e-07
2	1	0	1	0	1	770.693	0.643018	0.642833	0.0045847	6	0.00419237	11	0	38.5466	2.94719e-06
2	1	0	1	0	1	783.647	0.692199	0.692005	0.0639523	6	0.00464111	11	0	51.5009	4.42553e-05
2	1	0	1	0	1	796.829	0.626291	0.626092	0.00152558	6	0.00490071	11	0	64.6826	9.55154e-07
2	1	0	1	0	1	810.01	0.560382	0.560151	0.000211786	6	0.00490683	11	0	77.8643	1.18632e-07
2	1	0	0	0	1	823.192	0.494474	0.494307	0.000131459	6	0.00490813	11	0	0.000000000000000E+000	6.49808e-08
2	1	0	1	0	0	836.231	0.470756	0.470493	0.00130759	7	0.00491381	11	0	4.0943	6.15211e-07
2	0	0	1	0	0	849.413	0.536666	0.536458	0.00118545	7	0.00493138	11	0	17.2761	6.35946e-07
2	1	0	0	0	0	862.595	0.602574	0.602409	0.00151292	7	0.00494963	11	0	30.4578	9.11395e-07
2	1	0	1	0	0	875.776	0.668483	0.668278	0.018182	7	0.00501973	11	0	43.6395	1.21506e-05
2	1	0	0	0	0	888.731	0.666735	0.66653	0.0200705	7	0.00561715	11	0	56.5938	1.33776e-05
2	1	0	1	0	0	901.912	0.600827	0.600607	0.000547838	7	0.00567999	11	0	69.7755	3.29035e-07
2	0	0	1	0	0	915.094	0.534918	0.534654	0.000278017	7	0.00568275	11	0	82.9572	1.48643e-07
2	1	0	1	0	0	928.276	0.46901	0.468762	4.02208e-05	7	0.00568335	11	0	0.000000000000000E+000	1.8854e-08
2	1	0	1	0	1	941.315	0.496222	0.495959	0.00120308	8	0.00569513	11	0	9.1873	5.96681e-07
2	1	0	1	0	1	954.497	0.56213	0.561911	0.00127488	8	0.0057127	11	0	22.369	7.1637e-07
2	1	0	1	0	1	967.678	0.628039	0.627808	0.00240216	8	0.00573433	11	0	35.5507	1.50809e-06
2	1	0	1	0	1	980.86	0.693948	0.693722	0.0658756	8	0.00598969	11	0	48.7325	4.56993e-05
2	1	0	1	0	1	993.814	0.641271	0.64105	0.00402966	8	0.00644969	11	0	61.6867	2.58321e-06
2	1	0	1	0	1	1007	0.575361	0.575097	0.000320948	8	0.00646249	11	0	74.8685	1.84576e-07
[...]
2	1	0	1	0	1	1217.16	0.524433	0.524203	0.000162641	10	0.00804334	11	0	85.0543	8.52572e-08
2	1	0	1	0	1	1230.35	0.458523	0.458278	-3.83823e-05	10	0.00804371	11	0	0.2996	-1.75898e-08
2	1	0	1	0	0	1243.38	0.506707	0.506475	0.00125382	11	0.00805844	11	0	11.339	6.3503e-07
2	0	0	1	0	0	1256.57	0.572616	0.572366	0.00136105	11	0.00807596	11	0	24.5207	7.79019e-07
2	1	0	0	0	0	1269.75	0.638524	0.638289	0.00372273	11	0.00810124	11	0	37.7024	2.37617e-06
2	1	0	1	0	0	1282.7	0.696693	0.69642	0.0780722	11	0.00850396	11	0	50.6567	5.4371e-05
2	1	0	0	0	0	1295.88	0.630785	0.630505	0.00204789	11	0.00883416	11	0	63.8384	1.2912e-06
2	1	0	1	0	0	1309.07	0.564877	0.564619	0.000329113	11	0.00884144	11	0	77.0201	1.85824e-07
2	1	0	1	0	0	1322.25	0.498968	0.498682	0.000132374	11	0.0088428	11	0	0.000000000000000E+000	6.60125e-08
2	1	0	0	0	1	1335.29	0.466263	0.46606	0.00128011	12	0.00884691	11	0	3.2502	5.96608e-07
2	1	0	1	0	1	1348.47	0.532172	0.531959	0.0012605	12	0.00886473	11	0	16.4319	6.70536e-07
2	1	0	1	0	1	1361.65	0.598081	0.597862	0.00145091	12	0.00888291	11	0	29.6137	8.67443e-07
2	1	0	1	0	1	1374.83	0.663989	0.663795	0.0146449	12	0.0089407	11	0	42.7953	9.7212e-06
2	1	0	1	0	1	1387.79	0.671229	0.670983	0.0266636	12	0.00956349	11	0	55.7496	1.78908e-05
2	1	0	1	0	1	1400.97	0.605321	0.605098	0.000640365	12	0.00964866	11	0	68.9313	3.87484e-07
2	1	0	1	0	1	1414.15	0.539411	0.539165	0.000192943	12	0.00965153	11	0	82.1131	1.04028e-07
2	0	0	1	0	1	1427.33	0.473503	0.473275	6.43846e-05	12	0.00965174	11	0	0.1997	3.04716e-08
2	0	0	1	0	0	1440.37	0.491728	0.491519	0.00116156	13	0.00966215	11	0	8.2885	5.70927e-07
2	1	0	1	0	0	1453.55	0.557637	0.557432	0.00114404	13	0.00967953	11	0	21.4703	6.37726e-07
2	1	0	1	0	0	1466.73	0.623545	0.623276	0.00211224	13	0.00969972	11	0	34.652	1.31651e-06
2	1	0	1	0	0	1479.92	0.689454	0.68922	0.0566873	13	0.00991085	11	0	47.8337	3.907e-05
2	1	0	1	0	0	1492.87	0.645764	0.6456	0.00553735	13	0.0104483	11	0	60.788	3.57492e-06
2	1	0	1	0	0	1506.05	0.579856	0.579556	0.000329843	13	0.0104646	11	0	73.9697	1.91163e-07
2	1	0	0	0	0	1519.23	0.513947	0.513735	0.000209061	13	0.0104656	11	0	0.000000000000000E+000	1.07402e-07
2	1	0	1	0	1	1532.27	0.451284	0.451	0.00112001	14	0.0104658	11	0	0.2818	5.05127e-07
2	1	0	1	0	1	1545.45	0.517193	0.516967	0.00114941	14	0.0104831	11	0	13.4636	5.94207e-07
2	1	0	0	0	1	1558.64	0.583101	0.582867	0.00131221	14	0.0105006	11	0	26.6453	7.64844e-07
2	1	0	1	0	1	1571.82	0.64901	0.648805	0.00621403	14	0.0105331	11	0	39.827	4.03169e-06
2	1	0	0	0	1	1584.77	0.686208	0.685948	0.0547938	14	0.0110825	11	0	52.7813	3.75857e-05
2	1	0	1	0	1	1597.95	0.6203	0.620075	0.00113255	14	0.0112864	11	0	65.963	7.02263e-07
2	1	0	1	0	1	1611.14	0.554391	0.554171	0.000183801	14	0.0112908	11	0	79.1447	1.01857e-07
2	1	0	1	0	1	1624.32	0.488483	0.488287	0.000125031	14	0.0112915	11	0	0.000000000000000E+000	6.10511e-08
2	1	0	1	0	0	1637.36	0.476749	0.476491	0.001237	15	0.0112983	11	0	5.3748	5.89417e-07
2	1	0	1	0	0	1650.54	0.542657	0.5424	0.00125714	15	0.0113156	11	0	18.5565	6.81872e-07
2	0	0	1	0	0	1663.72	0.608565	0.608364	0.00156828	15	0.0113342	11	0	31.7382	9.54087e-07
2	1	0	1	0	0	1676.9	0.674475	0.674256	0.027101	15	0.011432	11	0	44.92	1.8273e-05
2	1	0	1	0	0	1689.86	0.660744	0.660492	0.0151226	15	0.0120794	11	0	57.8742	9.98838e-06
2	1	0	1	0	0	1703.04	0.594834	0.59462	0.000411612	15	0.0121248	11	0	71.056	2.44752e-07
2	0	0	1	0	0	1716.22	0.528926	0.528779	0.000175635	15	0.0121276	11	0	0.8988	9.28719e-08
2	0	0	1	0	0	1729.4	0.463018	0.462736	0.000200876	15	0.0121283	11	0	0.0999	9.29528e-08
2	1	0	1	0	0	1732	0.450011	0.450002	-0.00148002	15	0.0121283	11	0	0.000000000000000E+000	-6.66012e-07