Folder: SI_for_publications/ACS_Catal_2026/Figures_Na_K/main_figures/data/XPS_UPS/20240425_2-134_XPS_bfraft

Note: ACS_Catal_2026/ReadMe.md
## Codes to generate the figures in "Influence of Electrolyte Cations on the Oxygen Evolution Reaction of Nanochanneled Manganese Oxide"

All the code files were written by Koichi Yatsuzuka.
Includes the raw data files (binary and text).
The code uses Yatsuzuka's original library (included).

File: before_electrolysis.csv
2
no area description
C1s
1,1
file#,17
298.00,1336
293.75,1559.5
289.50,1264.17
285.25,3358.67
281.00,1071.33
0.00,0.0000
0.00,0.0000
0.00,0.0000
0.00,0.0000
0.00,0.0000
0.00,0.0000
0.00,0.0000
0.00,0.0000
0.00,0.0000
0.00,0.0000
0.00,0.0000
0.00,0.0000
0.00,0.0000
0.00,0.0000
0.00,0.0000
0.00,0.0000
0.00,0.0000
0.00,0.0000
0.00,0.0000
0.00,0.0000
0.00,0.0000
0.00,0.0000
0.00,0.0000
0.00,0.0000
0.00,0.0000
0.00,0.0000
0.00,0.0000
0.00,0.0000
0.00,0.0000
0.00,0.0000
0.00,0.0000
0.00,0.0000
0.00,0.0000
0.00,0.0000
0.00,0.0000
0.00,0.0000
0.00,0.0000
0.00,0.0000
0.00,0.0000
0.00,0.0000
0.00,0.0000
0.00,0.0000
0.00,0.0000
0.00,0.0000
0.00,0.0000
0.00,0.0000
0.00,0.0000
0.00,0.0000
0.00,0.0000
0.00,0.0000
0.00,0.0000
0.00,0.0000
0.00,0.0000
0.00,0.0000
0.00,0.0000
0.00,0.0000
0.00,0.0000
0.00,0.0000
0.00,0.0000
0.00,0.0000
0.00,0.0000
0.00,0.0000
0.00,0.0000
0.00,0.0000
0.00,0.0000
0.00,0.0000
0.00,0.0000
0.00,0.0000
0.00,0.0000
0.00,0.0000
0.00,0.0000
0.00,0.0000
0.00,0.0000
0.00,0.0000
0.00,0.0000
0.00,0.0000
0.00,0.0000
0.00,0.0000
0.00,0.0000
0.00,0.0000
0.00,0.0000
0.00,0.0000
0.00,0.0000
0.00,0.0000
0.00,0.0000
0.00,0.0000
0.00,0.0000
0.00,0.0000
0.00,0.0000
0.00,0.0000
0.00,0.0000
0.00,0.0000
0.00,0.0000
0.00,0.0000
0.00,0.0000
0.00,0.0000
0.00,0.0000
0.00,0.0000
0.00,0.0000
0.00,0.0000
0.00,0.0000
0.00,0.0000
0.00,0.0000
0.00,0.0000
0.00,0.0000
0.00,0.0000
0.00,0.0000
0.00,0.0000
0.00,0.0000
0.00,0.0000
0.00,0.0000
0.00,0.0000
0.00,0.0000
0.00,0.0000
0.00,0.0000
0.00,0.0000
0.00,0.0000
0.00,0.0000
0.00,0.0000
0.00,0.0000
0.00,0.0000
0.00,0.0000
0.00,0.0000
0.00,0.0000
0.00,0.0000
0.00,0.0000
0.00,0.0000
0.00,0.0000
0.00,0.0000
0.00,0.0000
0.00,0.0000
0.00,0.0000
0.00,0.0000
0.00,0.0000
0.00,0.0000
0.00,0.0000
0.00,0.0000
0.00,0.0000
0.00,0.0000
0.00,0.0000
0.00,0.0000
0.00,0.0000
0.00,0.0000
0.00,0.0000
0.00,0.0000
0.00,0.0000
0.00,0.0000
0.00,0.0000
0.00,0.0000
0.00,0.0000
0.00,0.0000
0.00,0.0000
0.00,0.0000
0.00,0.0000
0.00,0.0000
0.00,0.0000
0.00,0.0000
0.00,0.0000
0.00,0.0000
0.00,0.0000
0.00,0.0000
0.00,0.0000
0.00,0.0000
0.00,0.0000
0.00,0.0000
0.00,0.0000
0.00,0.0000
0.00,0.0000
0.00,0.0000
0.00,0.0000
0.00,0.0000
0.00,0.0000
0.00,0.0000
0.00,0.0000
0.00,0.0000
0.00,0.0000
0.00,0.0000
0.00,0.0000
0.00,0.0000
0.00,0.0000
0.00,0.0000
0.00,0.0000
0.00,0.0000
0.00,0.0000
0.00,0.0000
0.00,0.0000
0.00,0.0000
0.00,0.0000
0.00,0.0000
0.00,0.0000
0.00,0.0000
0.00,0.0000
0.00,0.0000
0.00,0.0000
0.00,0.0000
0.00,0.0000
0.00,0.0000
0.00,0.0000
0.00,0.0000
0.00,0.0000
0.00,0.0000
0.00,0.0000
0.00,0.0000
0.00,0.0000
0.00,0.0000
0.00,0.0000
0.00,0.0000
0.00,0.0000
0.00,0.0000
0.00,0.0000
0.00,0.0000
0.00,0.0000
0.00,0.0000
0.00,0.0000
0.00,0.0000
0.00,0.0000
0.00,0.0000
0.00,0.0000
0.00,0.0000
0.00,0.0000
0.00,0.0000
0.00,0.0000
0.00,0.0000
0.00,0.0000
0.00,0.0000
0.00,0.0000
0.00,0.0000
0.00,0.0000
0.00,0.0000
0.00,0.0000
0.00,0.0000
0.00,0.0000
0.00,0.0000
0.00,0.0000
0.00,0.0000
0.00,0.0000
0.00,0.0000
0.00,0.0000
0.00,0.0000
0.00,0.0000
0.00,0.0000
0.00,0.0000
0.00,0.0000
0.00,0.0000
0.00,0.0000
0.00,0.0000
0.00,0.0000
0.00,0.0000
0.00,0.0000
0.00,0.0000
0.00,0.0000
0.00,0.0000
0.00,0.0000
0.00,0.0000
0.00,0.0000
0.00,0.0000
0.00,0.0000
0.00,0.0000
0.00,0.0000
0.00,0.0000
0.00,0.0000
0.00,0.0000
0.00,0.0000
0.00,0.0000
0.00,0.0000
0.00,0.0000
0.00,0.0000
0.00,0.0000
0.00,0.0000
0.00,0.0000
0.00,0.0000
0.00,0.0000
0.00,0.0000
0.00,0.0000
0.00,0.0000
0.00,0.0000
0.00,0.0000
0.00,0.0000
0.00,0.0000
0.00,0.0000
0.00,0.0000
0.00,0.0000
0.00,0.0000
0.00,0.0000
0.00,0.0000
0.00,0.0000
0.00,0.0000
0.00,0.0000
0.00,0.0000
0.00,0.0000
0.00,0.0000

2
no area description
Mn2p
1,1
file#,17
672.00,8002.83
667.75,8113
663.50,7947.17
659.25,7622
655.00,10451
650.75,6924.83
646.50,6734.5
642.25,14912.7
638.00,3316.5
633.75,3131.67
0.00,0.0000
0.00,0.0000
0.00,0.0000
0.00,0.0000
0.00,0.0000
0.00,0.0000
0.00,0.0000
0.00,0.0000
0.00,0.0000
0.00,0.0000
0.00,0.0000
0.00,0.0000
0.00,0.0000
0.00,0.0000
0.00,0.0000
0.00,0.0000
0.00,0.0000
0.00,0.0000
0.00,0.0000
0.00,0.0000
0.00,0.0000
0.00,0.0000
0.00,0.0000
0.00,0.0000
0.00,0.0000
0.00,0.0000
0.00,0.0000
0.00,0.0000
0.00,0.0000
0.00,0.0000
0.00,0.0000
0.00,0.0000
0.00,0.0000
0.00,0.0000
0.00,0.0000
0.00,0.0000
0.00,0.0000
0.00,0.0000
0.00,0.0000
0.00,0.0000
0.00,0.0000
0.00,0.0000
0.00,0.0000
0.00,0.0000
0.00,0.0000
0.00,0.0000
0.00,0.0000
0.00,0.0000
0.00,0.0000
0.00,0.0000
0.00,0.0000
0.00,0.0000
0.00,0.0000
0.00,0.0000
0.00,0.0000
0.00,0.0000
0.00,0.0000
0.00,0.0000
0.00,0.0000
0.00,0.0000
0.00,0.0000
0.00,0.0000
0.00,0.0000
0.00,0.0000
0.00,0.0000
0.00,0.0000
0.00,0.0000
0.00,0.0000
0.00,0.0000
0.00,0.0000
0.00,0.0000
0.00,0.0000
0.00,0.0000
0.00,0.0000
0.00,0.0000
0.00,0.0000
0.00,0.0000
0.00,0.0000
0.00,0.0000
0.00,0.0000
0.00,0.0000
0.00,0.0000
0.00,0.0000
0.00,0.0000
0.00,0.0000
0.00,0.0000
0.00,0.0000
0.00,0.0000
0.00,0.0000
0.00,0.0000
0.00,0.0000
0.00,0.0000
0.00,0.0000
0.00,0.0000
0.00,0.0000
0.00,0.0000
0.00,0.0000
0.00,0.0000
0.00,0.0000
0.00,0.0000
0.00,0.0000
0.00,0.0000
0.00,0.0000
0.00,0.0000
0.00,0.0000
0.00,0.0000
0.00,0.0000
0.00,0.0000
0.00,0.0000
0.00,0.0000
0.00,0.0000
0.00,0.0000
0.00,0.0000
0.00,0.0000
0.00,0.0000
0.00,0.0000
0.00,0.0000
0.00,0.0000
0.00,0.0000
0.00,0.0000
0.00,0.0000
0.00,0.0000
0.00,0.0000
0.00,0.0000
0.00,0.0000
0.00,0.0000
0.00,0.0000
0.00,0.0000
0.00,0.0000
0.00,0.0000
0.00,0.0000
0.00,0.0000
0.00,0.0000
0.00,0.0000
0.00,0.0000
0.00,0.0000
0.00,0.0000
0.00,0.0000
0.00,0.0000
0.00,0.0000
0.00,0.0000
0.00,0.0000
0.00,0.0000
0.00,0.0000
0.00,0.0000
0.00,0.0000
0.00,0.0000
0.00,0.0000
0.00,0.0000
0.00,0.0000
0.00,0.0000
0.00,0.0000
0.00,0.0000
0.00,0.0000
0.00,0.0000
0.00,0.0000
0.00,0.0000
0.00,0.0000
0.00,0.0000
0.00,0.0000
0.00,0.0000
0.00,0.0000
0.00,0.0000
0.00,0.0000
0.00,0.0000
0.00,0.0000
0.00,0.0000
0.00,0.0000
0.00,0.0000
0.00,0.0000
0.00,0.0000
0.00,0.0000
0.00,0.0000
0.00,0.0000
0.00,0.0000
0.00,0.0000
0.00,0.0000
0.00,0.0000
0.00,0.0000
0.00,0.0000
0.00,0.0000
0.00,0.0000
0.00,0.0000
0.00,0.0000
0.00,0.0000
0.00,0.0000
0.00,0.0000
0.00,0.0000
0.00,0.0000
0.00,0.0000
0.00,0.0000
0.00,0.0000
0.00,0.0000
0.00,0.0000
0.00,0.0000
0.00,0.0000
0.00,0.0000
0.00,0.0000
0.00,0.0000
0.00,0.0000
0.00,0.0000
0.00,0.0000
0.00,0.0000
0.00,0.0000
0.00,0.0000
0.00,0.0000
0.00,0.0000
0.00,0.0000
0.00,0.0000
0.00,0.0000
0.00,0.0000
0.00,0.0000
0.00,0.0000
0.00,0.0000
0.00,0.0000
0.00,0.0000
0.00,0.0000
0.00,0.0000
0.00,0.0000
0.00,0.0000
0.00,0.0000
0.00,0.0000
0.00,0.0000
0.00,0.0000
0.00,0.0000
0.00,0.0000
0.00,0.0000
0.00,0.0000
0.00,0.0000
0.00,0.0000
0.00,0.0000
0.00,0.0000
0.00,0.0000
0.00,0.0000
0.00,0.0000
0.00,0.0000
0.00,0.0000
0.00,0.0000
0.00,0.0000
0.00,0.0000
0.00,0.0000
0.00,0.0000
0.00,0.0000
0.00,0.0000
0.00,0.0000
0.00,0.0000
0.00,0.0000
0.00,0.0000
0.00,0.0000
0.00,0.0000
0.00,0.0000
0.00,0.0000
0.00,0.0000
0.00,0.0000
0.00,0.0000
0.00,0.0000
0.00,0.0000
0.00,0.0000
0.00,0.0000
0.00,0.0000
0.00,0.0000
0.00,0.0000
0.00,0.0000
0.00,0.0000
0.00,0.0000
0.00,0.0000
0.00,0.0000
0.00,0.0000
0.00,0.0000
0.00,0.0000
0.00,0.0000
0.00,0.0000
0.00,0.0000
0.00,0.0000
0.00,0.0000
0.00,0.0000
0.00,0.0000
0.00,0.0000
0.00,0.0000
0.00,0.0000
0.00,0.0000
0.00,0.0000
0.00,0.0000
0.00,0.0000
0.00,0.0000
0.00,0.0000

2
no area description
Su1s
1,1
file#,17
1000.00,42960
996.60,43820
993.20,45350
989.80,44140
986.40,42990
983.00,42970
979.60,43030
976.20,46460
972.80,46690
969.40,43980
966.00,39980
962.60,39980
959.20,38010
955.80,39620
952.40,39810
949.00,39010
945.60,38160
942.20,34270
938.80,32990
935.40,31380
932.00,31760
928.60,32260
925.20,31810
921.80,31450
918.40,32110
915.00,32420
911.60,33080
908.20,32900
904.80,35810
901.40,35660
898.00,33190
894.60,29510
891.20,28110
887.80,27370
884.40,27750
881.00,26740
877.60,27240
874.20,27190
870.80,26550
867.40,28320
864.00,27360
860.60,27920
857.20,29310
853.80,30070
850.40,28930
847.00,28310
843.60,27220
840.20,28060
836.80,26180
833.40,26090
830.00,25850
826.60,26390
823.20,27240
819.80,27390
816.40,26040
813.00,27190
809.60,26630
806.20,26570
802.80,27080
799.40,26940
796.00,28020
792.60,27310
789.20,28100
785.80,26700
782.40,27670
779.00,27960
775.60,29300
772.20,29470
768.80,28680
765.40,25610
762.00,25490
758.60,25890
755.20,24750
751.80,24860
748.40,24720
745.00,24620
741.60,25820
738.20,26160
734.80,25270
731.40,25710
728.00,25880
724.60,25950
721.20,25880
717.80,26030
714.40,26370
711.00,27240
707.60,26230
704.20,26300
700.80,26640
697.40,26640
694.00,27200
690.60,27390
687.20,27610
683.80,27340
680.40,27590
677.00,26770
673.60,26370
670.20,27500
666.80,29380
663.40,28000
660.00,26560
656.60,31170
653.20,37480
649.80,24000
646.40,24900
643.00,41200
639.60,18700
636.20,11660
632.80,11850
629.40,10910
626.00,11240
622.60,10920
619.20,11200
615.80,10980
612.40,12280
609.00,11500
605.60,11220
602.20,11020
598.80,11460
595.40,11420
592.00,12040
588.60,11550
585.20,11760
581.80,10810
578.40,11530
575.00,11110
571.60,11520
568.20,10940
564.80,11050
561.40,12150
558.00,12160
554.60,11590
551.20,11200
547.80,10620
544.40,10870
541.00,10480
537.60,9570
534.20,10850
530.80,27690
527.40,8950
524.00,5020
520.60,4750
517.20,4220
513.80,4410
510.40,4410
507.00,4280
503.60,4170
500.20,4030
496.80,4770
493.40,4290
490.00,4560
486.60,4410
483.20,4590
479.80,4660
476.40,4550
473.00,4770
469.60,4410
466.20,4590
462.80,4950
459.40,4420
456.00,4650
452.60,4310
449.20,4880
445.80,4660
442.40,4500
439.00,4600
435.60,4360
432.20,4660
428.80,4600
425.40,4450
422.00,4820
418.60,4660
415.20,4880
411.80,5330
408.40,4590
405.00,5020
401.60,4960
398.20,4780
394.80,4680
391.40,4780
388.00,5090
384.60,4610
381.20,4990
377.80,5190
374.40,5310
371.00,4700
367.60,4810
364.20,4790
360.80,5000
357.40,5210
354.00,5080
350.60,5110
347.20,5290
343.80,4840
340.40,5090
337.00,5130
333.60,4880
330.20,5310
326.80,5420
323.40,5350
320.00,5090
316.60,5750
313.20,5140
309.80,5590
306.40,5280
303.00,4890
299.60,4710
296.20,5020
292.80,6360
289.40,5210
286.00,9290
282.60,5970
279.20,3800
275.80,3830
272.40,3480
269.00,3730
265.60,3870
262.20,3830
258.80,3700
255.40,3800
252.00,4020
248.60,3490
245.20,3840
241.80,4040
238.40,3890
235.00,3630
231.60,4030
228.20,4130
224.80,3880
221.40,3720
218.00,4340
214.60,3970
211.20,4350
207.80,4030
204.40,4210
201.00,4040
197.60,4210
194.20,3850
190.80,3660
187.40,4110
184.00,4420
180.60,3850
177.20,4190
173.80,4000
170.40,4110
167.00,4520
163.60,3940
160.20,3830
156.80,4280
153.40,4330
150.00,3810
146.60,3980
143.20,4420
139.80,4410
136.40,4110
133.00,4260
129.60,4580
126.20,4560
122.80,4160
119.40,4310
116.00,4690
112.60,4600
109.20,4630
105.80,4700
102.40,4620
99.00,4320
95.60,4380
92.20,4730
88.80,5380
85.40,5500
82.00,5000
78.60,4390
75.20,3850
71.80,3830
68.40,3840
65.00,4010
61.60,4310
58.20,3590
54.80,3370
51.40,5980
48.00,5080
44.60,1440
41.20,1120
37.80,1120
34.40,1000
31.00,1310
27.60,1040
24.20,1360
20.80,1930
17.40,990.0000
14.00,780.0000
10.60,660.0000
7.20,1110
3.80,1240
0.40,160.0000
0.00,200.0000